subject,group,phase,block,trial,trialType,option1,option2,option3,option4,clicked,choice,outcome,points,pointTotal,choice_rt,rating
1,1,1,1,1,1,1,0,NA,NA,1,1,0,0,0,2.949,NA
1,1,1,1,2,2,2,0,NA,NA,2,2,0,0,0,0.9856,NA
1,1,1,1,3,2,2,0,NA,NA,2,2,0,0,0,2.3364,NA
1,1,1,1,4,2,2,0,NA,NA,1,1,0,0,0,1.0339,NA
1,1,1,1,5,1,1,0,NA,NA,2,2,1,10,10,1.0559,NA
1,1,1,1,6,2,2,0,NA,NA,1,1,0,0,10,0.89965,NA
1,1,1,1,7,1,1,0,NA,NA,2,2,0,0,10,0.91849,NA
1,1,1,1,8,1,1,0,NA,NA,1,1,0,0,10,1.2812,NA
1,1,1,1,9,1,1,0,NA,NA,2,2,1,10,20,0.70782,NA
1,1,1,1,10,1,1,0,NA,NA,1,1,0,0,20,1.9352,NA
1,1,1,1,11,1,1,0,NA,NA,2,2,1,10,30,0.68787,NA
1,1,1,1,12,1,1,0,NA,NA,2,2,0,0,30,0.45917,NA
1,1,1,1,13,3,3,0,NA,NA,2,2,1,10,40,0.61573,NA
1,1,1,1,14,1,1,0,NA,NA,2,2,1,10,50,0.68301,NA
1,1,1,1,15,3,3,0,NA,NA,1,1,0,0,50,0.45718,NA
1,1,1,1,16,4,4,0,NA,NA,2,2,0,0,50,0.83809,NA
1,1,1,1,17,4,4,0,NA,NA,2,2,0,0,50,0.52366,NA
1,1,1,1,18,2,2,0,NA,NA,2,2,0,0,50,0.63696,NA
1,1,1,1,19,3,3,0,NA,NA,2,2,1,10,60,0.45064,NA
1,1,1,1,20,4,4,0,NA,NA,1,1,0,0,60,0.94307,NA
1,1,1,1,21,4,4,0,NA,NA,2,2,1,10,70,0.40013,NA
1,1,1,1,22,3,3,0,NA,NA,2,2,1,10,80,0.39908,NA
1,1,1,1,23,1,1,0,NA,NA,2,2,1,10,90,0.44951,NA
1,1,1,1,24,2,2,0,NA,NA,2,2,0,0,90,1.729,NA
1,1,1,1,25,2,2,0,NA,NA,2,2,0,0,90,0.87526,NA
1,1,1,1,26,1,1,0,NA,NA,2,2,1,10,100,0.49428,NA
1,1,1,1,27,1,1,0,NA,NA,1,1,0,0,100,0.41689,NA
1,1,1,1,28,2,2,0,NA,NA,1,1,0,0,100,0.67152,NA
1,1,1,1,29,3,3,0,NA,NA,2,2,0,0,100,0.32343,NA
1,1,1,1,30,3,3,0,NA,NA,2,2,1,10,110,0.39829,NA
1,1,1,2,31,1,1,0,NA,NA,2,2,1,10,120,1.0287,NA
1,1,1,2,32,2,2,0,NA,NA,2,2,0,0,120,0.62616,NA
1,1,1,2,33,1,1,0,NA,NA,2,2,1,10,130,1.0401,NA
1,1,1,2,34,3,3,0,NA,NA,1,1,0,0,130,0.50119,NA
1,1,1,2,35,2,2,0,NA,NA,2,2,0,0,130,0.46303,NA
1,1,1,2,36,4,4,0,NA,NA,2,2,1,10,140,0.37181,NA
1,1,1,2,37,1,1,0,NA,NA,2,2,0,0,140,0.37944,NA
1,1,1,2,38,3,3,0,NA,NA,2,2,0,0,140,0.53092,NA
1,1,1,2,39,1,1,0,NA,NA,2,2,0,0,140,0.51635,NA
1,1,1,2,40,3,3,0,NA,NA,1,1,0,0,140,0.2704,NA
1,1,1,2,41,3,3,0,NA,NA,2,2,1,10,150,0.37014,NA
1,1,1,2,42,3,3,0,NA,NA,2,2,1,10,160,0.68946,NA
1,1,1,2,43,2,2,0,NA,NA,1,1,0,0,160,0.62083,NA
1,1,1,2,44,1,1,0,NA,NA,2,2,0,0,160,0.30604,NA
1,1,1,2,45,4,4,0,NA,NA,2,2,0,0,160,0.43686,NA
1,1,1,2,46,1,1,0,NA,NA,2,2,0,0,160,0.61081,NA
1,1,1,2,47,1,1,0,NA,NA,1,1,0,0,160,0.28165,NA
1,1,1,2,48,4,4,0,NA,NA,2,2,0,0,160,0.47674,NA
1,1,1,2,49,3,3,0,NA,NA,2,2,0,0,160,0.41743,NA
1,1,1,2,50,1,1,0,NA,NA,2,2,1,10,170,0.37556,NA
1,1,1,2,51,2,2,0,NA,NA,1,1,0,0,170,0.41494,NA
1,1,1,2,52,1,1,0,NA,NA,2,2,1,10,180,0.58112,NA
1,1,1,2,53,4,4,0,NA,NA,1,1,0,0,180,1.2927,NA
1,1,1,2,54,2,2,0,NA,NA,1,1,0,0,180,0.29537,NA
1,1,1,2,55,2,2,0,NA,NA,2,2,0,0,180,0.50691,NA
1,1,1,2,56,1,1,0,NA,NA,2,2,0,0,180,0.31015,NA
1,1,1,2,57,1,1,0,NA,NA,1,1,0,0,180,0.36845,NA
1,1,1,2,58,1,1,0,NA,NA,2,2,1,10,190,0.36824,NA
1,1,1,2,59,2,2,0,NA,NA,2,2,0,0,190,0.84038,NA
1,1,1,2,60,2,2,0,NA,NA,2,2,0,0,190,0.49337,NA
1,1,1,3,61,3,3,0,NA,NA,2,2,1,10,200,0.49735,NA
1,1,1,3,62,3,3,0,NA,NA,1,1,0,0,200,0.77162,NA
1,1,1,3,63,1,1,0,NA,NA,2,2,0,0,200,0.29958,NA
1,1,1,3,64,1,1,0,NA,NA,2,2,1,10,210,0.43807,NA
1,1,1,3,65,2,2,0,NA,NA,1,1,0,0,210,0.45157,NA
1,1,1,3,66,1,1,0,NA,NA,2,2,1,10,220,0.41581,NA
1,1,1,3,67,3,3,0,NA,NA,2,2,0,0,220,0.46123,NA
1,1,1,3,68,2,2,0,NA,NA,1,1,0,0,220,0.33724,NA
1,1,1,3,69,1,1,0,NA,NA,2,2,1,10,230,0.29167,NA
1,1,1,3,70,4,4,0,NA,NA,2,2,1,10,240,0.55009,NA
1,1,1,3,71,1,1,0,NA,NA,1,1,0,0,240,0.40679,NA
1,1,1,3,72,2,2,0,NA,NA,1,1,0,0,240,0.29337,NA
1,1,1,3,73,1,1,0,NA,NA,2,2,1,10,250,0.2328,NA
1,1,1,3,74,4,4,0,NA,NA,2,2,0,0,250,0.38214,NA
1,1,1,3,75,2,2,0,NA,NA,1,1,0,0,250,0.38187,NA
1,1,1,3,76,3,3,0,NA,NA,2,2,1,10,260,0.27665,NA
1,1,1,3,77,4,4,0,NA,NA,2,2,1,10,270,0.31331,NA
1,1,1,3,78,1,1,0,NA,NA,1,1,0,0,270,0.4112,NA
1,1,1,3,79,1,1,0,NA,NA,2,2,0,0,270,0.37767,NA
1,1,1,3,80,4,4,0,NA,NA,2,2,0,0,270,0.52181,NA
1,1,1,3,81,1,1,0,NA,NA,1,1,0,0,270,0.43588,NA
1,1,1,3,82,2,2,0,NA,NA,2,2,0,0,270,0.79287,NA
1,1,1,3,83,2,2,0,NA,NA,1,1,0,0,270,0.34481,NA
1,1,1,3,84,1,1,0,NA,NA,2,2,1,10,280,0.45002,NA
1,1,1,3,85,2,2,0,NA,NA,1,1,0,0,280,1.0308,NA
1,1,1,3,86,1,1,0,NA,NA,2,2,0,0,280,0.25066,NA
1,1,1,3,87,3,3,0,NA,NA,2,2,0,0,280,0.41616,NA
1,1,1,3,88,1,1,0,NA,NA,1,1,0,0,280,0.30163,NA
1,1,1,3,89,2,2,0,NA,NA,1,1,0,0,280,0.24843,NA
1,1,1,3,90,3,3,0,NA,NA,2,2,1,10,290,0.41274,NA
1,1,1,4,91,1,1,0,NA,NA,2,2,1,10,300,0.34738,NA
1,1,1,4,92,2,2,0,NA,NA,1,1,0,0,300,0.3875,NA
1,1,1,4,93,2,2,0,NA,NA,1,1,0,0,300,0.53073,NA
1,1,1,4,94,1,1,0,NA,NA,2,2,0,0,300,0.28471,NA
1,1,1,4,95,1,1,0,NA,NA,2,2,0,0,300,0.54316,NA
1,1,1,4,96,2,2,0,NA,NA,2,2,0,0,300,0.7614,NA
1,1,1,4,97,1,1,0,NA,NA,2,2,1,10,310,0.4732,NA
1,1,1,4,98,3,3,0,NA,NA,2,2,1,10,320,0.22079,NA
1,1,1,4,99,3,3,0,NA,NA,2,2,1,10,330,0.39597,NA
1,1,1,4,100,4,4,0,NA,NA,1,1,0,0,330,0.64285,NA
1,1,1,4,101,2,2,0,NA,NA,1,1,0,0,330,0.5432,NA
1,1,1,4,102,1,1,0,NA,NA,2,2,0,0,330,0.39363,NA
1,1,1,4,103,1,1,0,NA,NA,2,2,1,10,340,0.65585,NA
1,1,1,4,104,1,1,0,NA,NA,2,2,1,10,350,0.25253,NA
1,1,1,4,105,1,1,0,NA,NA,2,2,1,10,360,0.27273,NA
1,1,1,4,106,1,1,0,NA,NA,2,2,1,10,370,0.25012,NA
1,1,1,4,107,3,3,0,NA,NA,2,2,1,10,380,0.26687,NA
1,1,1,4,108,3,3,0,NA,NA,2,2,1,10,390,0.36653,NA
1,1,1,4,109,3,3,0,NA,NA,2,2,1,10,400,0.30006,NA
1,1,1,4,110,1,1,0,NA,NA,2,2,0,0,400,0.21671,NA
1,1,1,4,111,4,4,0,NA,NA,2,2,1,10,410,0.33315,NA
1,1,1,4,112,4,4,0,NA,NA,2,2,0,0,410,0.016916,NA
1,1,1,4,113,4,4,0,NA,NA,2,2,0,0,410,1.3725,NA
1,1,1,4,114,3,3,0,NA,NA,2,2,1,10,420,0.44484,NA
1,1,1,4,115,2,2,0,NA,NA,1,1,0,0,420,0.36187,NA
1,1,1,4,116,2,2,0,NA,NA,2,2,0,0,420,0.89084,NA
1,1,1,4,117,2,2,0,NA,NA,2,2,1,10,430,0.44646,NA
1,1,1,4,118,1,1,0,NA,NA,2,2,0,0,430,0.27457,NA
1,1,1,4,119,2,2,0,NA,NA,2,2,0,0,430,0.74298,NA
1,1,1,4,120,1,1,0,NA,NA,2,2,0,0,430,0.5762,NA
1,1,1,5,121,1,1,0,NA,NA,2,2,1,10,440,0.50418,NA
1,1,1,5,122,1,1,0,NA,NA,2,2,1,10,450,0.49907,NA
1,1,1,5,123,2,2,0,NA,NA,2,2,0,0,450,0.90195,NA
1,1,1,5,124,2,2,0,NA,NA,1,1,0,0,450,0.19189,NA
1,1,1,5,125,3,3,0,NA,NA,2,2,0,0,450,0.24756,NA
1,1,1,5,126,4,4,0,NA,NA,2,2,0,0,450,0.45989,NA
1,1,1,5,127,1,1,0,NA,NA,2,2,1,10,460,0.6327,NA
1,1,1,5,128,2,2,0,NA,NA,1,1,0,0,460,0.63904,NA
1,1,1,5,129,3,3,0,NA,NA,2,2,1,10,470,0.28312,NA
1,1,1,5,130,1,1,0,NA,NA,2,2,1,10,480,0.2662,NA
1,1,1,5,131,3,3,0,NA,NA,2,2,1,10,490,0.2667,NA
1,1,1,5,132,2,2,0,NA,NA,1,1,0,0,490,0.27942,NA
1,1,1,5,133,1,1,0,NA,NA,1,1,0,0,490,1.0183,NA
1,1,1,5,134,1,1,0,NA,NA,2,2,1,10,500,0.32859,NA
1,1,1,5,135,2,2,0,NA,NA,1,1,0,0,500,0.65049,NA
1,1,1,5,136,1,1,0,NA,NA,2,2,0,0,500,0.37484,NA
1,1,1,5,137,1,1,0,NA,NA,2,2,1,10,510,0.31122,NA
1,1,1,5,138,1,1,0,NA,NA,2,2,1,10,520,1.0178,NA
1,1,1,5,139,2,2,0,NA,NA,1,1,0,0,520,0.55915,NA
1,1,1,5,140,1,1,0,NA,NA,2,2,1,10,530,0.28836,NA
1,1,1,5,141,4,4,0,NA,NA,2,2,0,0,530,0.66802,NA
1,1,1,5,142,1,1,0,NA,NA,2,2,1,10,540,0.26574,NA
1,1,1,5,143,2,2,0,NA,NA,1,1,0,0,540,0.73915,NA
1,1,1,5,144,2,2,0,NA,NA,2,2,1,10,550,0.31639,NA
1,1,1,5,145,4,4,0,NA,NA,2,2,0,0,550,1.3187,NA
1,1,1,5,146,4,4,0,NA,NA,2,2,0,0,550,0.64137,NA
1,1,1,5,147,3,3,0,NA,NA,2,2,1,10,560,0.44664,NA
1,1,1,5,148,3,3,0,NA,NA,2,2,1,10,570,0.24346,NA
1,1,1,5,149,1,1,0,NA,NA,2,2,1,10,580,0.39249,NA
1,1,1,5,150,3,3,0,NA,NA,2,2,0,0,580,0.3167,NA
1,1,1,6,151,3,3,0,NA,NA,2,2,1,10,590,0.21782,NA
1,1,1,6,152,1,1,0,NA,NA,2,2,0,0,590,0.30007,NA
1,1,1,6,153,1,1,0,NA,NA,2,2,1,10,600,0.21682,NA
1,1,1,6,154,4,4,0,NA,NA,2,2,1,10,610,0.61747,NA
1,1,1,6,155,2,2,0,NA,NA,2,2,1,10,620,1.02,NA
1,1,1,6,156,3,3,0,NA,NA,2,2,1,10,630,0.31437,NA
1,1,1,6,157,2,2,0,NA,NA,2,2,0,0,630,0.5886,NA
1,1,1,6,158,3,3,0,NA,NA,2,2,1,10,640,0.34035,NA
1,1,1,6,159,2,2,0,NA,NA,2,2,1,10,650,0.53296,NA
1,1,1,6,160,2,2,0,NA,NA,2,2,0,0,650,0.57491,NA
1,1,1,6,161,1,1,0,NA,NA,2,2,1,10,660,0.27033,NA
1,1,1,6,162,1,1,0,NA,NA,2,2,0,0,660,0.25042,NA
1,1,1,6,163,1,1,0,NA,NA,1,1,0,0,660,0.55903,NA
1,1,1,6,164,4,4,0,NA,NA,2,2,0,0,660,0.31681,NA
1,1,1,6,165,3,3,0,NA,NA,2,2,0,0,660,0.34618,NA
1,1,1,6,166,1,1,0,NA,NA,2,2,1,10,670,0.66702,NA
1,1,1,6,167,2,2,0,NA,NA,2,2,1,10,680,0.68717,NA
1,1,1,6,168,3,3,0,NA,NA,2,2,1,10,690,0.3166,NA
1,1,1,6,169,1,1,0,NA,NA,1,1,0,0,690,0.29266,NA
1,1,1,6,170,1,1,0,NA,NA,2,2,1,10,700,0.27896,NA
1,1,1,6,171,2,2,0,NA,NA,1,1,0,0,700,0.76302,NA
1,1,1,6,172,2,2,0,NA,NA,2,2,0,0,700,0.24362,NA
1,1,1,6,173,1,1,0,NA,NA,2,2,1,10,710,0.33632,NA
1,1,1,6,174,4,4,0,NA,NA,2,2,0,0,710,0.28351,NA
1,1,1,6,175,2,2,0,NA,NA,2,2,0,0,710,0.46159,NA
1,1,1,6,176,1,1,0,NA,NA,2,2,0,0,710,0.27363,NA
1,1,1,6,177,1,1,0,NA,NA,2,2,0,0,710,0.33419,NA
1,1,1,6,178,3,3,0,NA,NA,2,2,1,10,720,0.2469,NA
1,1,1,6,179,1,1,0,NA,NA,2,2,0,0,720,0.20154,NA
1,1,1,6,180,4,4,0,NA,NA,2,2,0,0,720,0.26689,NA
1,1,1,7,181,3,3,0,NA,NA,2,2,1,10,730,0.23345,NA
1,1,1,7,182,1,1,0,NA,NA,1,1,0,0,730,0.44118,NA
1,1,1,7,183,2,2,0,NA,NA,1,1,0,0,730,0.35002,NA
1,1,1,7,184,2,2,0,NA,NA,1,1,0,0,730,0.28333,NA
1,1,1,7,185,4,4,0,NA,NA,2,2,0,0,730,0.283,NA
1,1,1,7,186,3,3,0,NA,NA,2,2,1,10,740,0.25365,NA
1,1,1,7,187,1,1,0,NA,NA,2,2,1,10,750,0.34612,NA
1,1,1,7,188,4,4,0,NA,NA,1,1,0,0,750,0.73061,NA
1,1,1,7,189,2,2,0,NA,NA,2,2,1,10,760,0.40439,NA
1,1,1,7,190,1,1,0,NA,NA,2,2,1,10,770,0.9229,NA
1,1,1,7,191,4,4,0,NA,NA,2,2,0,0,770,0.62038,NA
1,1,1,7,192,4,4,0,NA,NA,2,2,0,0,770,0.97026,NA
1,1,1,7,193,3,3,0,NA,NA,2,2,1,10,780,0.39533,NA
1,1,1,7,194,2,2,0,NA,NA,1,1,0,0,780,0.53801,NA
1,1,1,7,195,1,1,0,NA,NA,2,2,1,10,790,0.30766,NA
1,1,1,7,196,2,2,0,NA,NA,1,1,0,0,790,0.39015,NA
1,1,1,7,197,2,2,0,NA,NA,2,2,0,0,790,0.27038,NA
1,1,1,7,198,3,3,0,NA,NA,2,2,1,10,800,0.25042,NA
1,1,1,7,199,1,1,0,NA,NA,2,2,1,10,810,0.28641,NA
1,1,1,7,200,2,2,0,NA,NA,2,2,0,0,810,1.7306,NA
1,1,1,7,201,1,1,0,NA,NA,2,2,0,0,810,0.54723,NA
1,1,1,7,202,3,3,0,NA,NA,2,2,1,10,820,0.54044,NA
1,1,1,7,203,1,1,0,NA,NA,2,2,0,0,820,1.061,NA
1,1,1,7,204,1,1,0,NA,NA,2,2,1,10,830,0.73706,NA
1,1,1,7,205,1,1,0,NA,NA,2,2,1,10,840,0.29023,NA
1,1,1,7,206,2,2,0,NA,NA,1,1,0,0,840,0.31014,NA
1,1,1,7,207,1,1,0,NA,NA,2,2,0,0,840,0.28042,NA
1,1,1,7,208,1,1,0,NA,NA,2,2,0,0,840,1.2199,NA
1,1,1,7,209,1,1,0,NA,NA,2,2,1,10,850,0.23286,NA
1,1,1,7,210,3,3,0,NA,NA,2,2,1,10,860,0.26293,NA
1,1,2,1,1,2,4,3,NA,NA,3,3,0,0,860,1.9505,NA
1,1,2,1,2,4,1,4,NA,NA,1,1,0,0,860,2.0338,NA
1,1,2,1,3,5,3,2,NA,NA,3,3,1,10,870,1.0996,NA
1,1,2,1,4,3,3,1,NA,NA,1,1,0,0,870,2.0507,NA
1,1,2,1,5,6,4,2,NA,NA,4,4,0,0,870,1.3804,NA
1,1,2,1,6,1,2,1,NA,NA,1,1,1,10,880,0.99206,NA
1,1,2,1,7,1,1,2,NA,NA,2,2,1,10,890,0.73275,NA
1,1,2,1,8,2,3,4,NA,NA,3,3,1,10,900,0.72256,NA
1,1,2,1,9,4,4,1,NA,NA,1,1,0,0,900,0.91215,NA
1,1,2,1,10,5,2,3,NA,NA,3,3,1,10,910,1.0629,NA
1,1,2,1,11,6,2,4,NA,NA,4,4,0,0,910,0.69065,NA
1,1,2,1,12,3,1,3,NA,NA,3,3,1,10,920,1.202,NA
1,1,2,2,13,3,3,1,NA,NA,1,1,1,10,930,1.1694,NA
1,1,2,2,14,6,2,4,NA,NA,2,2,0,0,930,0.95882,NA
1,1,2,2,15,6,4,2,NA,NA,4,4,0,0,930,1.6204,NA
1,1,2,2,16,3,1,3,NA,NA,1,1,1,10,940,1.6784,NA
1,1,2,2,17,4,1,4,NA,NA,1,1,1,10,950,2.735,NA
1,1,2,2,18,4,4,1,NA,NA,1,1,1,10,960,1.0056,NA
1,1,2,2,19,2,4,3,NA,NA,4,4,0,0,960,1.3128,NA
1,1,2,2,20,5,2,3,NA,NA,3,3,1,10,970,1.1359,NA
1,1,2,2,21,1,1,2,NA,NA,1,1,0,0,970,0.81413,NA
1,1,2,2,22,5,3,2,NA,NA,3,3,1,10,980,1.88,NA
1,1,2,2,23,2,3,4,NA,NA,3,3,1,10,990,1.8008,NA
1,1,2,2,24,1,2,1,NA,NA,2,2,0,0,990,1.2513,NA
1,1,2,3,25,3,1,3,NA,NA,1,1,1,10,1000,0.86149,NA
1,1,2,3,26,4,1,4,NA,NA,1,1,1,10,1010,0.8543,NA
1,1,2,3,27,5,2,3,NA,NA,3,3,1,10,1020,0.7434,NA
1,1,2,3,28,1,2,1,NA,NA,1,1,0,0,1020,0.87015,NA
1,1,2,3,29,3,3,1,NA,NA,3,3,0,0,1020,0.70262,NA
1,1,2,3,30,4,4,1,NA,NA,1,1,1,10,1030,0.62991,NA
1,1,2,3,31,2,4,3,NA,NA,3,3,1,10,1040,0.58489,NA
1,1,2,3,32,6,4,2,NA,NA,4,4,1,10,1050,1.0042,NA
1,1,2,3,33,6,2,4,NA,NA,4,4,0,0,1050,0.8158,NA
1,1,2,3,34,2,3,4,NA,NA,3,3,1,10,1060,0.77902,NA
1,1,2,3,35,5,3,2,NA,NA,3,3,1,10,1070,0.71107,NA
1,1,2,3,36,1,1,2,NA,NA,1,1,1,10,1080,0.69415,NA
1,1,2,4,37,1,1,2,NA,NA,1,1,0,0,1080,1.5349,NA
1,1,2,4,38,3,1,3,NA,NA,3,3,1,10,1090,0.69954,NA
1,1,2,4,39,1,2,1,NA,NA,1,1,1,10,1100,0.76273,NA
1,1,2,4,40,4,4,1,NA,NA,1,1,0,0,1100,0.76811,NA
1,1,2,4,41,4,1,4,NA,NA,1,1,1,10,1110,0.7255,NA
1,1,2,4,42,3,3,1,NA,NA,3,3,1,10,1120,0.93978,NA
1,1,2,4,43,2,3,4,NA,NA,3,3,1,10,1130,0.80145,NA
1,1,2,4,44,6,4,2,NA,NA,4,4,1,10,1140,0.86942,NA
1,1,2,4,45,5,2,3,NA,NA,3,3,0,0,1140,1.4374,NA
1,1,2,4,46,6,2,4,NA,NA,4,4,1,10,1150,1.2641,NA
1,1,2,4,47,5,3,2,NA,NA,3,3,1,10,1160,0.60806,NA
1,1,2,4,48,2,4,3,NA,NA,3,3,0,0,1160,0.48378,NA
1,1,2,5,49,5,3,2,NA,NA,3,3,0,0,1160,0.49964,NA
1,1,2,5,50,1,1,2,NA,NA,2,2,0,0,1160,0.74647,NA
1,1,2,5,51,6,4,2,NA,NA,4,4,1,10,1170,0.84958,NA
1,1,2,5,52,6,2,4,NA,NA,4,4,0,0,1170,0.83314,NA
1,1,2,5,53,3,1,3,NA,NA,3,3,1,10,1180,2.3328,NA
1,1,2,5,54,1,2,1,NA,NA,1,1,1,10,1190,0.85793,NA
1,1,2,5,55,2,3,4,NA,NA,3,3,1,10,1200,1.1715,NA
1,1,2,5,56,2,4,3,NA,NA,3,3,0,0,1200,0.4337,NA
1,1,2,5,57,3,3,1,NA,NA,3,3,1,10,1210,0.55418,NA
1,1,2,5,58,5,2,3,NA,NA,2,2,0,0,1210,0.98321,NA
1,1,2,5,59,4,1,4,NA,NA,1,1,0,0,1210,0.95573,NA
1,1,2,5,60,4,4,1,NA,NA,1,1,1,10,1220,0.59239,NA
1,1,2,6,61,3,1,3,NA,NA,3,3,1,10,1230,2.2126,NA
1,1,2,6,62,2,3,4,NA,NA,3,3,1,10,1240,0.53291,NA
1,1,2,6,63,5,3,2,NA,NA,3,3,0,0,1240,1.1019,NA
1,1,2,6,64,2,4,3,NA,NA,3,3,1,10,1250,0.53394,NA
1,1,2,6,65,6,4,2,NA,NA,4,4,0,0,1250,1.0357,NA
1,1,2,6,66,4,4,1,NA,NA,1,1,0,0,1250,1.182,NA
1,1,2,6,67,1,1,2,NA,NA,1,1,1,10,1260,2.1934,NA
1,1,2,6,68,4,1,4,NA,NA,4,4,1,10,1270,1.2535,NA
1,1,2,6,69,5,2,3,NA,NA,3,3,1,10,1280,0.73529,NA
1,1,2,6,70,6,2,4,NA,NA,4,4,0,0,1280,0.78898,NA
1,1,2,6,71,3,3,1,NA,NA,1,1,0,0,1280,1.1371,NA
1,1,2,6,72,1,2,1,NA,NA,1,1,1,10,1290,1.0553,NA
1,1,2,7,73,4,4,1,NA,NA,4,4,0,0,1290,1.3843,NA
1,1,2,7,74,5,3,2,NA,NA,3,3,1,10,1300,0.73196,NA
1,1,2,7,75,3,3,1,NA,NA,1,1,0,0,1300,0.77776,NA
1,1,2,7,76,1,2,1,NA,NA,2,2,1,10,1310,0.50255,NA
1,1,2,7,77,1,1,2,NA,NA,1,1,0,0,1310,0.90255,NA
1,1,2,7,78,5,2,3,NA,NA,3,3,1,10,1320,1.2614,NA
1,1,2,7,79,2,4,3,NA,NA,3,3,0,0,1320,0.65468,NA
1,1,2,7,80,6,4,2,NA,NA,4,4,0,0,1320,0.81604,NA
1,1,2,7,81,2,3,4,NA,NA,3,3,1,10,1330,0.539,NA
1,1,2,7,82,3,1,3,NA,NA,1,1,1,10,1340,0.82457,NA
1,1,2,7,83,6,2,4,NA,NA,4,4,1,10,1350,1.4195,NA
1,1,2,7,84,4,1,4,NA,NA,1,1,0,0,1350,0.67879,NA
1,1,2,8,85,3,1,3,NA,NA,3,3,1,10,1360,0.57471,NA
1,1,2,8,86,6,4,2,NA,NA,4,4,0,0,1360,1.1872,NA
1,1,2,8,87,2,3,4,NA,NA,3,3,1,10,1370,0.44977,NA
1,1,2,8,88,2,4,3,NA,NA,3,3,1,10,1380,0.57592,NA
1,1,2,8,89,6,2,4,NA,NA,4,4,0,0,1380,0.9167,NA
1,1,2,8,90,5,2,3,NA,NA,3,3,1,10,1390,0.65934,NA
1,1,2,8,91,4,4,1,NA,NA,1,1,0,0,1390,0.70047,NA
1,1,2,8,92,1,2,1,NA,NA,1,1,1,10,1400,0.77977,NA
1,1,2,8,93,3,3,1,NA,NA,3,3,1,10,1410,0.56871,NA
1,1,2,8,94,5,3,2,NA,NA,3,3,1,10,1420,0.53289,NA
1,1,2,8,95,4,1,4,NA,NA,1,1,0,0,1420,0.69057,NA
1,1,2,8,96,1,1,2,NA,NA,1,1,1,10,1430,0.8505,NA
1,1,2,9,97,6,2,4,NA,NA,4,4,1,10,1440,0.8521,NA
1,1,2,9,98,3,1,3,NA,NA,3,3,1,10,1450,0.44563,NA
1,1,2,9,99,1,2,1,NA,NA,1,1,1,10,1460,0.71211,NA
1,1,2,9,100,4,4,1,NA,NA,1,1,1,10,1470,0.75045,NA
1,1,2,9,101,2,4,3,NA,NA,3,3,1,10,1480,0.55653,NA
1,1,2,9,102,5,2,3,NA,NA,3,3,1,10,1490,0.56214,NA
1,1,2,9,103,6,4,2,NA,NA,4,4,0,0,1490,0.88692,NA
1,1,2,9,104,5,3,2,NA,NA,3,3,1,10,1500,0.6704,NA
1,1,2,9,105,3,3,1,NA,NA,1,1,0,0,1500,1.343,NA
1,1,2,9,106,1,1,2,NA,NA,1,1,1,10,1510,0.94129,NA
1,1,2,9,107,2,3,4,NA,NA,3,3,0,0,1510,0.55534,NA
1,1,2,9,108,4,1,4,NA,NA,4,4,0,0,1510,0.70372,NA
1,1,2,10,109,1,1,2,NA,NA,1,1,0,0,1510,0.71912,NA
1,1,2,10,110,6,2,4,NA,NA,4,4,0,0,1510,0.83793,NA
1,1,2,10,111,5,3,2,NA,NA,3,3,0,0,1510,1.1444,NA
1,1,2,10,112,1,2,1,NA,NA,1,1,1,10,1520,0.66185,NA
1,1,2,10,113,4,1,4,NA,NA,4,4,0,0,1520,1.3118,NA
1,1,2,10,114,2,3,4,NA,NA,3,3,1,10,1530,2.0993,NA
1,1,2,10,115,4,4,1,NA,NA,1,1,1,10,1540,1.6217,NA
1,1,2,10,116,3,3,1,NA,NA,3,3,1,10,1550,1.9212,NA
1,1,2,10,117,5,2,3,NA,NA,3,3,1,10,1560,1.1036,NA
1,1,2,10,118,2,4,3,NA,NA,3,3,1,10,1570,2.0067,NA
1,1,2,10,119,3,1,3,NA,NA,1,1,1,10,1580,2.0575,NA
1,1,2,10,120,6,4,2,NA,NA,4,4,0,0,1580,1.3715,NA
1,1,3,1,1,7,4,2,1,3,1,1,1,10,1590,1.6712,NA
1,1,3,1,2,7,4,2,3,1,3,3,1,10,1600,0.59113,NA
1,1,3,1,3,7,2,3,4,1,4,4,1,10,1610,0.62748,NA
1,1,3,1,4,7,2,4,3,1,1,1,0,0,1610,0.62252,NA
1,1,3,1,5,7,3,2,4,1,1,1,1,10,1620,0.36623,NA
1,1,3,1,6,7,2,1,3,4,3,3,0,0,1620,0.70974,NA
1,1,3,1,7,7,3,2,1,4,4,4,0,0,1620,1.6926,NA
1,1,3,1,8,7,1,4,2,3,2,2,0,0,1620,0.79589,NA
1,1,3,1,9,7,3,4,2,1,3,3,1,10,1630,0.49961,NA
1,1,3,1,10,7,4,2,1,3,3,3,1,10,1640,0.38249,NA
1,1,3,1,11,7,3,1,4,2,3,3,1,10,1650,0.28328,NA
1,1,3,1,12,7,4,3,2,1,1,1,0,0,1650,0.55517,NA
1,1,3,1,13,7,2,3,1,4,4,4,0,0,1650,0.44751,NA
1,1,3,1,14,7,2,1,4,3,2,2,1,10,1660,0.4829,NA
1,1,3,1,15,7,4,2,1,3,3,3,1,10,1670,1.0888,NA
1,1,3,1,16,7,4,1,3,2,1,1,1,10,1680,0.47215,NA
1,1,3,1,17,7,1,2,4,3,4,4,1,10,1690,0.68159,NA
1,1,3,1,18,7,4,1,2,3,3,3,1,10,1700,1.7775,NA
1,1,3,1,19,7,4,3,1,2,1,1,1,10,1710,0.66975,NA
1,1,3,1,20,7,4,1,2,3,4,4,0,0,1710,0.74284,NA
1,1,4,1,1,1,1,NA,NA,NA,NA,NA,NA,NA,NA,NA,99.8333
1,1,4,1,2,2,2,NA,NA,NA,NA,NA,NA,NA,NA,NA,0.5
1,1,4,1,3,3,3,NA,NA,NA,NA,NA,NA,NA,NA,NA,79.1667
1,1,4,1,4,4,4,NA,NA,NA,NA,NA,NA,NA,NA,NA,57.1667
2,2,1,1,1,3,3,0,NA,NA,2,2,1,10,10,1.6137,NA
2,2,1,1,2,4,4,0,NA,NA,1,1,0,0,10,1.6677,NA
2,2,1,1,3,4,4,0,NA,NA,2,2,0,0,10,1.1276,NA
2,2,1,1,4,1,1,0,NA,NA,2,2,1,10,20,1.0174,NA
2,2,1,1,5,2,2,0,NA,NA,1,1,0,0,20,0.9911,NA
2,2,1,1,6,3,3,0,NA,NA,2,2,0,0,20,0.58307,NA
2,2,1,1,7,4,4,0,NA,NA,2,2,0,0,20,0.65457,NA
2,2,1,1,8,1,1,0,NA,NA,2,2,1,10,30,0.71509,NA
2,2,1,1,9,3,3,0,NA,NA,2,2,1,10,40,1.1487,NA
2,2,1,1,10,1,1,0,NA,NA,1,1,0,0,40,1.6933,NA
2,2,1,1,11,3,3,0,NA,NA,2,2,0,0,40,2.4091,NA
2,2,1,1,12,1,1,0,NA,NA,2,2,0,0,40,0.96718,NA
2,2,1,1,13,2,2,0,NA,NA,2,2,1,10,50,0.70023,NA
2,2,1,1,14,3,3,0,NA,NA,2,2,1,10,60,3.2743,NA
2,2,1,1,15,3,3,0,NA,NA,1,1,0,0,60,0.88616,NA
2,2,1,1,16,3,3,0,NA,NA,2,2,1,10,70,0.64913,NA
2,2,1,1,17,4,4,0,NA,NA,2,2,0,0,70,1.1834,NA
2,2,1,1,18,2,2,0,NA,NA,2,2,1,10,80,0.9332,NA
2,2,1,1,19,2,2,0,NA,NA,2,2,0,0,80,1.067,NA
2,2,1,1,20,1,1,0,NA,NA,2,2,1,10,90,0.88378,NA
2,2,1,1,21,1,1,0,NA,NA,1,1,0,0,90,1.181,NA
2,2,1,1,22,3,3,0,NA,NA,2,2,0,0,90,0.98858,NA
2,2,1,1,23,4,4,0,NA,NA,1,1,0,0,90,1.2278,NA
2,2,1,1,24,1,1,0,NA,NA,2,2,0,0,90,2.2905,NA
2,2,1,1,25,1,1,0,NA,NA,2,2,1,10,100,0.4164,NA
2,2,1,1,26,2,2,0,NA,NA,2,2,1,10,110,2.5946,NA
2,2,1,1,27,3,3,0,NA,NA,2,2,1,10,120,11.5701,NA
2,2,1,1,28,1,1,0,NA,NA,2,2,1,10,130,1.6177,NA
2,2,1,1,29,1,1,0,NA,NA,2,2,1,10,140,1.667,NA
2,2,1,1,30,3,3,0,NA,NA,2,2,1,10,150,0.95061,NA
2,2,1,2,31,3,3,0,NA,NA,1,1,0,0,150,1.9242,NA
2,2,1,2,32,3,3,0,NA,NA,2,2,1,10,160,1.2542,NA
2,2,1,2,33,2,2,0,NA,NA,2,2,0,0,160,0.70718,NA
2,2,1,2,34,1,1,0,NA,NA,2,2,1,10,170,1.2999,NA
2,2,1,2,35,3,3,0,NA,NA,2,2,1,10,180,3.7502,NA
2,2,1,2,36,3,3,0,NA,NA,2,2,0,0,180,1.4502,NA
2,2,1,2,37,1,1,0,NA,NA,2,2,1,10,190,1.0331,NA
2,2,1,2,38,4,4,0,NA,NA,1,1,0,0,190,1.3783,NA
2,2,1,2,39,2,2,0,NA,NA,2,2,0,0,190,1.0432,NA
2,2,1,2,40,1,1,0,NA,NA,2,2,1,10,200,0.80868,NA
2,2,1,2,41,1,1,0,NA,NA,2,2,1,10,210,1.0499,NA
2,2,1,2,42,3,3,0,NA,NA,2,2,1,10,220,0.56356,NA
2,2,1,2,43,1,1,0,NA,NA,2,2,1,10,230,0.86625,NA
2,2,1,2,44,3,3,0,NA,NA,2,2,1,10,240,1.317,NA
2,2,1,2,45,4,4,0,NA,NA,1,1,0,0,240,0.92807,NA
2,2,1,2,46,3,3,0,NA,NA,2,2,1,10,250,2.0667,NA
2,2,1,2,47,1,1,0,NA,NA,2,2,0,0,250,2.2068,NA
2,2,1,2,48,2,2,0,NA,NA,2,2,0,0,250,2.1096,NA
2,2,1,2,49,3,3,0,NA,NA,2,2,1,10,260,0.41566,NA
2,2,1,2,50,4,4,0,NA,NA,2,2,0,0,260,0.30969,NA
2,2,1,2,51,3,3,0,NA,NA,2,2,1,10,270,0.99998,NA
2,2,1,2,52,2,2,0,NA,NA,2,2,1,10,280,2.0956,NA
2,2,1,2,53,2,2,0,NA,NA,1,1,0,0,280,1.355,NA
2,2,1,2,54,1,1,0,NA,NA,2,2,1,10,290,1.3875,NA
2,2,1,2,55,3,3,0,NA,NA,2,2,1,10,300,5.4107,NA
2,2,1,2,56,1,1,0,NA,NA,2,2,0,0,300,0.73373,NA
2,2,1,2,57,4,4,0,NA,NA,2,2,0,0,300,0.4833,NA
2,2,1,2,58,1,1,0,NA,NA,2,2,1,10,310,1.0216,NA
2,2,1,2,59,4,4,0,NA,NA,2,2,0,0,310,0.9557,NA
2,2,1,2,60,1,1,0,NA,NA,2,2,0,0,310,0.77271,NA
2,2,1,3,61,1,1,0,NA,NA,2,2,1,10,320,0.60477,NA
2,2,1,3,62,2,2,0,NA,NA,1,1,0,0,320,0.88277,NA
2,2,1,3,63,3,3,0,NA,NA,2,2,1,10,330,1.3189,NA
2,2,1,3,64,2,2,0,NA,NA,2,2,0,0,330,3.2486,NA
2,2,1,3,65,1,1,0,NA,NA,2,2,1,10,340,0.6836,NA
2,2,1,3,66,3,3,0,NA,NA,2,2,1,10,350,0.76075,NA
2,2,1,3,67,3,3,0,NA,NA,1,1,0,0,350,0.9207,NA
2,2,1,3,68,4,4,0,NA,NA,1,1,0,0,350,0.73338,NA
2,2,1,3,69,1,1,0,NA,NA,2,2,1,10,360,0.69208,NA
2,2,1,3,70,3,3,0,NA,NA,2,2,1,10,370,0.53316,NA
2,2,1,3,71,4,4,0,NA,NA,1,1,0,0,370,1.3447,NA
2,2,1,3,72,3,3,0,NA,NA,2,2,1,10,380,1.3229,NA
2,2,1,3,73,1,1,0,NA,NA,2,2,1,10,390,3.6498,NA
2,2,1,3,74,4,4,0,NA,NA,2,2,0,0,390,1.2491,NA
2,2,1,3,75,2,2,0,NA,NA,2,2,1,10,400,0.47788,NA
2,2,1,3,76,4,4,0,NA,NA,2,2,0,0,400,1.0979,NA
2,2,1,3,77,2,2,0,NA,NA,2,2,0,0,400,0.34984,NA
2,2,1,3,78,4,4,0,NA,NA,1,1,0,0,400,0.45264,NA
2,2,1,3,79,3,3,0,NA,NA,2,2,0,0,400,0.48194,NA
2,2,1,3,80,3,3,0,NA,NA,2,2,1,10,410,0.41338,NA
2,2,1,3,81,1,1,0,NA,NA,2,2,0,0,410,2.8116,NA
2,2,1,3,82,3,3,0,NA,NA,2,2,1,10,420,1.0818,NA
2,2,1,3,83,1,1,0,NA,NA,2,2,1,10,430,1.2935,NA
2,2,1,3,84,1,1,0,NA,NA,2,2,1,10,440,1.4649,NA
2,2,1,3,85,1,1,0,NA,NA,2,2,0,0,440,1.2922,NA
2,2,1,3,86,1,1,0,NA,NA,2,2,1,10,450,1.2801,NA
2,2,1,3,87,3,3,0,NA,NA,2,2,1,10,460,0.44988,NA
2,2,1,3,88,3,3,0,NA,NA,1,1,0,0,460,0.59142,NA
2,2,1,3,89,2,2,0,NA,NA,2,2,0,0,460,1.6234,NA
2,2,1,3,90,1,1,0,NA,NA,2,2,1,10,470,0.83295,NA
2,2,1,4,91,2,2,0,NA,NA,2,2,1,10,480,1.0268,NA
2,2,1,4,92,1,1,0,NA,NA,1,1,0,0,480,1.8246,NA
2,2,1,4,93,3,3,0,NA,NA,2,2,1,10,490,0.45443,NA
2,2,1,4,94,1,1,0,NA,NA,2,2,0,0,490,1.0832,NA
2,2,1,4,95,4,4,0,NA,NA,1,1,0,0,490,0.5183,NA
2,2,1,4,96,1,1,0,NA,NA,2,2,1,10,500,2.6719,NA
2,2,1,4,97,3,3,0,NA,NA,2,2,1,10,510,1.5397,NA
2,2,1,4,98,1,1,0,NA,NA,2,2,0,0,510,1.4219,NA
2,2,1,4,99,3,3,0,NA,NA,2,2,1,10,520,0.37957,NA
2,2,1,4,100,1,1,0,NA,NA,2,2,1,10,530,1.5954,NA
2,2,1,4,101,1,1,0,NA,NA,2,2,1,10,540,1.3829,NA
2,2,1,4,102,1,1,0,NA,NA,1,1,0,0,540,0.49056,NA
2,2,1,4,103,2,2,0,NA,NA,2,2,0,0,540,0.74914,NA
2,2,1,4,104,4,4,0,NA,NA,2,2,1,10,550,1.9252,NA
2,2,1,4,105,3,3,0,NA,NA,2,2,0,0,550,1.0078,NA
2,2,1,4,106,4,4,0,NA,NA,2,2,1,10,560,1.0384,NA
2,2,1,4,107,3,3,0,NA,NA,2,2,1,10,570,1.0834,NA
2,2,1,4,108,3,3,0,NA,NA,2,2,1,10,580,1.0471,NA
2,2,1,4,109,3,3,0,NA,NA,1,1,0,0,580,1.6999,NA
2,2,1,4,110,3,3,0,NA,NA,2,2,0,0,580,0.335,NA
2,2,1,4,111,2,2,0,NA,NA,2,2,1,10,590,0.6003,NA
2,2,1,4,112,3,3,0,NA,NA,2,2,1,10,600,0.58337,NA
2,2,1,4,113,1,1,0,NA,NA,2,2,1,10,610,0.62124,NA
2,2,1,4,114,2,2,0,NA,NA,2,2,0,0,610,0.63588,NA
2,2,1,4,115,1,1,0,NA,NA,2,2,1,10,620,1.4997,NA
2,2,1,4,116,4,4,0,NA,NA,2,2,0,0,620,1.2115,NA
2,2,1,4,117,3,3,0,NA,NA,2,2,0,0,620,0.3301,NA
2,2,1,4,118,1,1,0,NA,NA,2,2,0,0,620,0.39581,NA
2,2,1,4,119,2,2,0,NA,NA,2,2,0,0,620,0.55462,NA
2,2,1,4,120,4,4,0,NA,NA,2,2,0,0,620,0.45885,NA
2,2,1,5,121,4,4,0,NA,NA,2,2,1,10,630,1.0959,NA
2,2,1,5,122,1,1,0,NA,NA,2,2,1,10,640,1.1268,NA
2,2,1,5,123,1,1,0,NA,NA,1,1,0,0,640,1.9774,NA
2,2,1,5,124,2,2,0,NA,NA,2,2,1,10,650,0.50458,NA
2,2,1,5,125,2,2,0,NA,NA,2,2,0,0,650,0.81175,NA
2,2,1,5,126,3,3,0,NA,NA,2,2,1,10,660,6.3864,NA
2,2,1,5,127,3,3,0,NA,NA,2,2,1,10,670,2.4997,NA
2,2,1,5,128,1,1,0,NA,NA,2,2,0,0,670,4.3,NA
2,2,1,5,129,4,4,0,NA,NA,2,2,0,0,670,0.70274,NA
2,2,1,5,130,1,1,0,NA,NA,2,2,1,10,680,0.68912,NA
2,2,1,5,131,1,1,0,NA,NA,2,2,1,10,690,0.56668,NA
2,2,1,5,132,1,1,0,NA,NA,2,2,0,0,690,1.3078,NA
2,2,1,5,133,2,2,0,NA,NA,1,1,0,0,690,0.62255,NA
2,2,1,5,134,3,3,0,NA,NA,2,2,1,10,700,0.62837,NA
2,2,1,5,135,3,3,0,NA,NA,2,2,1,10,710,1.7939,NA
2,2,1,5,136,1,1,0,NA,NA,2,2,1,10,720,0.73296,NA
2,2,1,5,137,3,3,0,NA,NA,2,2,1,10,730,0.68339,NA
2,2,1,5,138,3,3,0,NA,NA,1,1,0,0,730,0.83021,NA
2,2,1,5,139,1,1,0,NA,NA,2,2,1,10,740,0.94798,NA
2,2,1,5,140,1,1,0,NA,NA,2,2,0,0,740,0.56669,NA
2,2,1,5,141,3,3,0,NA,NA,2,2,1,10,750,0.54053,NA
2,2,1,5,142,3,3,0,NA,NA,2,2,1,10,760,1.2506,NA
2,2,1,5,143,2,2,0,NA,NA,2,2,1,10,770,1.4325,NA
2,2,1,5,144,3,3,0,NA,NA,1,1,0,0,770,1.2704,NA
2,2,1,5,145,1,1,0,NA,NA,2,2,0,0,770,0.62614,NA
2,2,1,5,146,4,4,0,NA,NA,2,2,0,0,770,0.71256,NA
2,2,1,5,147,2,2,0,NA,NA,2,2,0,0,770,0.43484,NA
2,2,1,5,148,3,3,0,NA,NA,1,1,0,0,770,0.58362,NA
2,2,1,5,149,4,4,0,NA,NA,2,2,0,0,770,3.1513,NA
2,2,1,5,150,4,4,0,NA,NA,2,2,0,0,770,5.1334,NA
2,2,1,6,151,4,4,0,NA,NA,2,2,0,0,770,0.90436,NA
2,2,1,6,152,1,1,0,NA,NA,2,2,1,10,780,0.3831,NA
2,2,1,6,153,4,4,0,NA,NA,1,1,0,0,780,12.1144,NA
2,2,1,6,154,1,1,0,NA,NA,2,2,0,0,780,0.82099,NA
2,2,1,6,155,4,4,0,NA,NA,2,2,0,0,780,5.5229,NA
2,2,1,6,156,1,1,0,NA,NA,2,2,1,10,790,2.5571,NA
2,2,1,6,157,2,2,0,NA,NA,2,2,1,10,800,3.6852,NA
2,2,1,6,158,3,3,0,NA,NA,2,2,1,10,810,1.617,NA
2,2,1,6,159,3,3,0,NA,NA,2,2,1,10,820,0.59043,NA
2,2,1,6,160,1,1,0,NA,NA,2,2,0,0,820,2.2462,NA
2,2,1,6,161,3,3,0,NA,NA,2,2,1,10,830,1.2423,NA
2,2,1,6,162,3,3,0,NA,NA,2,2,1,10,840,0.49591,NA
2,2,1,6,163,2,2,0,NA,NA,2,2,0,0,840,1.3143,NA
2,2,1,6,164,3,3,0,NA,NA,2,2,1,10,850,0.41652,NA
2,2,1,6,165,2,2,0,NA,NA,1,1,0,0,850,1.7783,NA
2,2,1,6,166,1,1,0,NA,NA,2,2,1,10,860,8.0504,NA
2,2,1,6,167,3,3,0,NA,NA,2,2,1,10,870,0.58348,NA
2,2,1,6,168,4,4,0,NA,NA,1,1,0,0,870,4.951,NA
2,2,1,6,169,2,2,0,NA,NA,2,2,0,0,870,0.71141,NA
2,2,1,6,170,1,1,0,NA,NA,2,2,0,0,870,0.92963,NA
2,2,1,6,171,2,2,0,NA,NA,2,2,1,10,880,0.31657,NA
2,2,1,6,172,1,1,0,NA,NA,2,2,1,10,890,5.5975,NA
2,2,1,6,173,3,3,0,NA,NA,2,2,0,0,890,2.3884,NA
2,2,1,6,174,1,1,0,NA,NA,2,2,0,0,890,0.61926,NA
2,2,1,6,175,1,1,0,NA,NA,2,2,1,10,900,0.38557,NA
2,2,1,6,176,4,4,0,NA,NA,1,1,0,0,900,0.96829,NA
2,2,1,6,177,1,1,0,NA,NA,2,2,0,0,900,1.0891,NA
2,2,1,6,178,3,3,0,NA,NA,2,2,1,10,910,3.9802,NA
2,2,1,6,179,3,3,0,NA,NA,2,2,0,0,910,5.0113,NA
2,2,1,6,180,3,3,0,NA,NA,2,2,1,10,920,3.4496,NA
2,2,1,7,181,3,3,0,NA,NA,2,2,1,10,930,1.5902,NA
2,2,1,7,182,3,3,0,NA,NA,2,2,1,10,940,0.53367,NA
2,2,1,7,183,1,1,0,NA,NA,2,2,1,10,950,1.0395,NA
2,2,1,7,184,3,3,0,NA,NA,2,2,1,10,960,0.41264,NA
2,2,1,7,185,4,4,0,NA,NA,2,2,1,10,970,0.4828,NA
2,2,1,7,186,1,1,0,NA,NA,1,1,0,0,970,1.4856,NA
2,2,1,7,187,1,1,0,NA,NA,2,2,0,0,970,0.34571,NA
2,2,1,7,188,1,1,0,NA,NA,2,2,1,10,980,0.41676,NA
2,2,1,7,189,2,2,0,NA,NA,2,2,1,10,990,1.0396,NA
2,2,1,7,190,1,1,0,NA,NA,2,2,0,0,990,1.0497,NA
2,2,1,7,191,4,4,0,NA,NA,2,2,0,0,990,0.65768,NA
2,2,1,7,192,1,1,0,NA,NA,2,2,1,10,1000,0.23832,NA
2,2,1,7,193,1,1,0,NA,NA,2,2,1,10,1010,0.4502,NA
2,2,1,7,194,1,1,0,NA,NA,2,2,0,0,1010,0.83294,NA
2,2,1,7,195,3,3,0,NA,NA,2,2,1,10,1020,0.28395,NA
2,2,1,7,196,3,3,0,NA,NA,1,1,0,0,1020,1.0091,NA
2,2,1,7,197,4,4,0,NA,NA,1,1,0,0,1020,0.4477,NA
2,2,1,7,198,2,2,0,NA,NA,2,2,1,10,1030,0.40454,NA
2,2,1,7,199,3,3,0,NA,NA,2,2,1,10,1040,0.36705,NA
2,2,1,7,200,2,2,0,NA,NA,2,2,0,0,1040,1.0512,NA
2,2,1,7,201,3,3,0,NA,NA,2,2,1,10,1050,0.31629,NA
2,2,1,7,202,3,3,0,NA,NA,2,2,1,10,1060,0.41657,NA
2,2,1,7,203,4,4,0,NA,NA,2,2,0,0,1060,0.43322,NA
2,2,1,7,204,2,2,0,NA,NA,2,2,1,10,1070,4.1511,NA
2,2,1,7,205,3,3,0,NA,NA,2,2,1,10,1080,1.6839,NA
2,2,1,7,206,4,4,0,NA,NA,2,2,0,0,1080,0.6336,NA
2,2,1,7,207,1,1,0,NA,NA,2,2,1,10,1090,0.51769,NA
2,2,1,7,208,2,2,0,NA,NA,2,2,1,10,1100,1.1912,NA
2,2,1,7,209,1,1,0,NA,NA,1,1,0,0,1100,2.4476,NA
2,2,1,7,210,3,3,0,NA,NA,2,2,1,10,1110,0.57253,NA
2,2,2,1,1,6,4,2,NA,NA,4,4,0,0,1110,1.953,NA
2,2,2,1,2,5,3,2,NA,NA,3,3,1,10,1120,3.958,NA
2,2,2,1,3,3,1,3,NA,NA,1,1,1,10,1130,4.1233,NA
2,2,2,1,4,4,1,4,NA,NA,4,4,0,0,1130,5.874,NA
2,2,2,1,5,6,2,4,NA,NA,2,2,0,0,1130,1.7706,NA
2,2,2,1,6,2,3,4,NA,NA,3,3,1,10,1140,1.8146,NA
2,2,2,1,7,1,2,1,NA,NA,2,2,0,0,1140,4.402,NA
2,2,2,1,8,3,3,1,NA,NA,3,3,1,10,1150,1.5489,NA
2,2,2,1,9,5,2,3,NA,NA,2,2,0,0,1150,0.89001,NA
2,2,2,1,10,1,1,2,NA,NA,1,1,1,10,1160,2.3459,NA
2,2,2,1,11,2,4,3,NA,NA,3,3,1,10,1170,7.8089,NA
2,2,2,1,12,4,4,1,NA,NA,4,4,0,0,1170,4.9079,NA
2,2,2,2,13,2,3,4,NA,NA,4,4,0,0,1170,3.7877,NA
2,2,2,2,14,6,2,4,NA,NA,2,2,0,0,1170,2.6953,NA
2,2,2,2,15,4,4,1,NA,NA,1,1,1,10,1180,3.0392,NA
2,2,2,2,16,3,3,1,NA,NA,3,3,1,10,1190,1.4969,NA
2,2,2,2,17,4,1,4,NA,NA,4,4,0,0,1190,14.0883,NA
2,2,2,2,18,5,3,2,NA,NA,3,3,1,10,1200,4.6883,NA
2,2,2,2,19,3,1,3,NA,NA,1,1,1,10,1210,2.2073,NA
2,2,2,2,20,5,2,3,NA,NA,2,2,0,0,1210,4.859,NA
2,2,2,2,21,6,4,2,NA,NA,2,2,1,10,1220,3.724,NA
2,2,2,2,22,1,2,1,NA,NA,1,1,1,10,1230,1.6905,NA
2,2,2,2,23,2,4,3,NA,NA,3,3,1,10,1240,1.2498,NA
2,2,2,2,24,1,1,2,NA,NA,1,1,1,10,1250,5.2758,NA
2,2,2,3,25,4,4,1,NA,NA,1,1,0,0,1250,8.0765,NA
2,2,2,3,26,6,4,2,NA,NA,4,4,0,0,1250,2.0935,NA
2,2,2,3,27,4,1,4,NA,NA,1,1,1,10,1260,0.92474,NA
2,2,2,3,28,3,3,1,NA,NA,3,3,1,10,1270,0.98726,NA
2,2,2,3,29,1,2,1,NA,NA,2,2,1,10,1280,2.1435,NA
2,2,2,3,30,5,3,2,NA,NA,3,3,1,10,1290,0.90132,NA
2,2,2,3,31,2,3,4,NA,NA,3,3,1,10,1300,1.3331,NA
2,2,2,3,32,3,1,3,NA,NA,1,1,1,10,1310,0.85931,NA
2,2,2,3,33,5,2,3,NA,NA,2,2,0,0,1310,0.81644,NA
2,2,2,3,34,6,2,4,NA,NA,4,4,1,10,1320,1.1506,NA
2,2,2,3,35,1,1,2,NA,NA,1,1,0,0,1320,1.4365,NA
2,2,2,3,36,2,4,3,NA,NA,3,3,1,10,1330,1.9266,NA
2,2,2,4,37,6,2,4,NA,NA,2,2,0,0,1330,3.5175,NA
2,2,2,4,38,5,3,2,NA,NA,3,3,1,10,1340,2.0344,NA
2,2,2,4,39,5,2,3,NA,NA,3,3,0,0,1340,1.4505,NA
2,2,2,4,40,4,1,4,NA,NA,1,1,1,10,1350,4.7981,NA
2,2,2,4,41,1,1,2,NA,NA,1,1,0,0,1350,0.96998,NA
2,2,2,4,42,3,3,1,NA,NA,3,3,1,10,1360,21.3499,NA
2,2,2,4,43,2,4,3,NA,NA,3,3,1,10,1370,0.98672,NA
2,2,2,4,44,2,3,4,NA,NA,3,3,0,0,1370,1.8227,NA
2,2,2,4,45,1,2,1,NA,NA,1,1,0,0,1370,2.2172,NA
2,2,2,4,46,4,4,1,NA,NA,1,1,0,0,1370,1.4757,NA
2,2,2,4,47,6,4,2,NA,NA,2,2,0,0,1370,3.4443,NA
2,2,2,4,48,3,1,3,NA,NA,3,3,1,10,1380,2.7665,NA
2,2,2,5,49,5,2,3,NA,NA,3,3,1,10,1390,1.5668,NA
2,2,2,5,50,4,1,4,NA,NA,4,4,0,0,1390,2.9925,NA
2,2,2,5,51,1,2,1,NA,NA,2,2,0,0,1390,5.3556,NA
2,2,2,5,52,6,4,2,NA,NA,2,2,1,10,1400,3.9297,NA
2,2,2,5,53,2,4,3,NA,NA,3,3,1,10,1410,3.2876,NA
2,2,2,5,54,6,2,4,NA,NA,2,2,1,10,1420,10.5599,NA
2,2,2,5,55,5,3,2,NA,NA,3,3,1,10,1430,1.3656,NA
2,2,2,5,56,2,3,4,NA,NA,3,3,1,10,1440,2.6819,NA
2,2,2,5,57,4,4,1,NA,NA,1,1,1,10,1450,3.8662,NA
2,2,2,5,58,3,3,1,NA,NA,1,1,0,0,1450,8.4341,NA
2,2,2,5,59,3,1,3,NA,NA,1,1,1,10,1460,0.38275,NA
2,2,2,5,60,1,1,2,NA,NA,1,1,1,10,1470,1.8248,NA
2,2,2,6,61,1,1,2,NA,NA,2,2,0,0,1470,1.0516,NA
2,2,2,6,62,3,1,3,NA,NA,3,3,1,10,1480,0.62092,NA
2,2,2,6,63,5,3,2,NA,NA,3,3,0,0,1480,1.0955,NA
2,2,2,6,64,2,4,3,NA,NA,4,4,0,0,1480,1.2557,NA
2,2,2,6,65,2,3,4,NA,NA,3,3,1,10,1490,2.7529,NA
2,2,2,6,66,3,3,1,NA,NA,1,1,1,10,1500,1.9576,NA
2,2,2,6,67,4,4,1,NA,NA,4,4,0,0,1500,3.0108,NA
2,2,2,6,68,5,2,3,NA,NA,2,2,1,10,1510,2.3424,NA
2,2,2,6,69,6,2,4,NA,NA,4,4,0,0,1510,5.085,NA
2,2,2,6,70,4,1,4,NA,NA,1,1,1,10,1520,1.5088,NA
2,2,2,6,71,6,4,2,NA,NA,2,2,0,0,1520,2.3485,NA
2,2,2,6,72,1,2,1,NA,NA,1,1,1,10,1530,1.9774,NA
2,2,2,7,73,3,3,1,NA,NA,1,1,0,0,1530,1.6378,NA
2,2,2,7,74,6,2,4,NA,NA,4,4,1,10,1540,1.3196,NA
2,2,2,7,75,3,1,3,NA,NA,3,3,1,10,1550,2.9424,NA
2,2,2,7,76,2,4,3,NA,NA,3,3,1,10,1560,1.0662,NA
2,2,2,7,77,1,2,1,NA,NA,1,1,1,10,1570,2.8217,NA
2,2,2,7,78,4,1,4,NA,NA,1,1,1,10,1580,3.1362,NA
2,2,2,7,79,4,4,1,NA,NA,4,4,1,10,1590,3.6298,NA
2,2,2,7,80,2,3,4,NA,NA,3,3,1,10,1600,3.9371,NA
2,2,2,7,81,1,1,2,NA,NA,2,2,0,0,1600,2.0464,NA
2,2,2,7,82,5,3,2,NA,NA,3,3,0,0,1600,1.5607,NA
2,2,2,7,83,5,2,3,NA,NA,3,3,1,10,1610,1.4294,NA
2,2,2,7,84,6,4,2,NA,NA,4,4,1,10,1620,0.88287,NA
2,2,2,8,85,6,4,2,NA,NA,2,2,1,10,1630,2.0404,NA
2,2,2,8,86,5,3,2,NA,NA,3,3,1,10,1640,2.1381,NA
2,2,2,8,87,1,2,1,NA,NA,2,2,0,0,1640,13.3606,NA
2,2,2,8,88,5,2,3,NA,NA,3,3,1,10,1650,6.389,NA
2,2,2,8,89,4,4,1,NA,NA,4,4,1,10,1660,1.2734,NA
2,2,2,8,90,2,4,3,NA,NA,3,3,1,10,1670,1.13,NA
2,2,2,8,91,6,2,4,NA,NA,2,2,1,10,1680,1.5522,NA
2,2,2,8,92,1,1,2,NA,NA,1,1,1,10,1690,1.0298,NA
2,2,2,8,93,2,3,4,NA,NA,3,3,1,10,1700,1.1848,NA
2,2,2,8,94,4,1,4,NA,NA,4,4,0,0,1700,2.2205,NA
2,2,2,8,95,3,1,3,NA,NA,1,1,0,0,1700,1.3271,NA
2,2,2,8,96,3,3,1,NA,NA,1,1,1,10,1710,1.3573,NA
2,2,2,9,97,4,1,4,NA,NA,1,1,0,0,1710,1.1953,NA
2,2,2,9,98,3,1,3,NA,NA,1,1,1,10,1720,8.127,NA
2,2,2,9,99,4,4,1,NA,NA,4,4,1,10,1730,1.406,NA
2,2,2,9,100,5,3,2,NA,NA,3,3,1,10,1740,2.2093,NA
2,2,2,9,101,2,4,3,NA,NA,4,4,0,0,1740,1.6041,NA
2,2,2,9,102,1,2,1,NA,NA,2,2,0,0,1740,1.6957,NA
2,2,2,9,103,1,1,2,NA,NA,1,1,0,0,1740,1.1841,NA
2,2,2,9,104,6,4,2,NA,NA,2,2,0,0,1740,3.0519,NA
2,2,2,9,105,3,3,1,NA,NA,1,1,0,0,1740,1.036,NA
2,2,2,9,106,2,3,4,NA,NA,3,3,1,10,1750,0.69475,NA
2,2,2,9,107,5,2,3,NA,NA,3,3,1,10,1760,1.078,NA
2,2,2,9,108,6,2,4,NA,NA,4,4,1,10,1770,3.6791,NA
2,2,2,10,109,6,2,4,NA,NA,4,4,0,0,1770,0.85025,NA
2,2,2,10,110,4,4,1,NA,NA,1,1,1,10,1780,0.87332,NA
2,2,2,10,111,3,3,1,NA,NA,1,1,0,0,1780,0.80024,NA
2,2,2,10,112,5,2,3,NA,NA,2,2,0,0,1780,2.0605,NA
2,2,2,10,113,1,2,1,NA,NA,2,2,0,0,1780,0.91617,NA
2,2,2,10,114,3,1,3,NA,NA,3,3,0,0,1780,0.94742,NA
2,2,2,10,115,1,1,2,NA,NA,1,1,0,0,1780,1.4727,NA
2,2,2,10,116,2,4,3,NA,NA,4,4,0,0,1780,1.4496,NA
2,2,2,10,117,2,3,4,NA,NA,3,3,1,10,1790,1.4593,NA
2,2,2,10,118,6,4,2,NA,NA,2,2,0,0,1790,1.4359,NA
2,2,2,10,119,4,1,4,NA,NA,1,1,1,10,1800,0.77382,NA
2,2,2,10,120,5,3,2,NA,NA,3,3,1,10,1810,0.97883,NA
2,2,3,1,1,7,1,2,3,4,3,3,0,0,1810,4.0686,NA
2,2,3,1,2,7,2,1,4,3,1,1,1,10,1820,4.8047,NA
2,2,3,1,3,7,4,2,3,1,1,1,1,10,1830,2.9521,NA
2,2,3,1,4,7,3,2,1,4,2,2,0,0,1830,0.79684,NA
2,2,3,1,5,7,1,4,2,3,3,3,1,10,1840,0.90483,NA
2,2,3,1,6,7,3,4,2,1,4,4,0,0,1840,1.3839,NA
2,2,3,1,7,7,4,2,1,3,1,1,1,10,1850,0.6678,NA
2,2,3,1,8,7,2,3,1,4,1,1,0,0,1850,0.75614,NA
2,2,3,1,9,7,3,2,1,4,2,2,0,0,1850,0.63375,NA
2,2,3,1,10,7,1,4,3,2,3,3,1,10,1860,1.0356,NA
2,2,3,1,11,7,1,3,2,4,3,3,1,10,1870,1.2208,NA
2,2,3,1,12,7,3,1,4,2,2,2,0,0,1870,0.80721,NA
2,2,3,1,13,7,4,2,1,3,4,4,0,0,1870,0.58716,NA
2,2,3,1,14,7,3,4,2,1,1,1,1,10,1880,0.99864,NA
2,2,3,1,15,7,3,2,1,4,1,1,0,0,1880,0.94689,NA
2,2,3,1,16,7,3,4,2,1,2,2,0,0,1880,2.3747,NA
2,2,3,1,17,7,4,3,2,1,3,3,1,10,1890,9.7634,NA
2,2,3,1,18,7,2,3,1,4,1,1,0,0,1890,6.6245,NA
2,2,3,1,19,7,3,1,4,2,1,1,1,10,1900,0.82733,NA
2,2,3,1,20,7,1,4,3,2,1,1,1,10,1910,0.71041,NA
2,2,4,1,1,1,1,NA,NA,NA,NA,NA,NA,NA,NA,NA,84.5
2,2,4,1,2,2,2,NA,NA,NA,NA,NA,NA,NA,NA,NA,49.8333
2,2,4,1,3,3,3,NA,NA,NA,NA,NA,NA,NA,NA,NA,74
2,2,4,1,4,4,4,NA,NA,NA,NA,NA,NA,NA,NA,NA,17
3,3,1,1,1,3,3,0,NA,NA,2,2,1,10,10,2.0808,NA
3,3,1,1,2,2,2,0,NA,NA,2,2,0,0,10,1.2222,NA
3,3,1,1,3,1,1,0,NA,NA,2,2,1,10,20,0.90849,NA
3,3,1,1,4,3,3,0,NA,NA,2,2,1,10,30,0.74942,NA
3,3,1,1,5,4,4,0,NA,NA,2,2,1,10,40,0.78294,NA
3,3,1,1,6,1,1,0,NA,NA,2,2,0,0,40,0.33338,NA
3,3,1,1,7,2,2,0,NA,NA,2,2,1,10,50,0.36679,NA
3,3,1,1,8,1,1,0,NA,NA,2,2,1,10,60,0.39955,NA
3,3,1,1,9,3,3,0,NA,NA,2,2,1,10,70,0.4334,NA
3,3,1,1,10,2,2,0,NA,NA,2,2,0,0,70,0.28353,NA
3,3,1,1,11,2,2,0,NA,NA,2,2,1,10,80,0.28353,NA
3,3,1,1,12,4,4,0,NA,NA,2,2,0,0,80,0.3498,NA
3,3,1,1,13,1,1,0,NA,NA,2,2,0,0,80,0.3711,NA
3,3,1,1,14,1,1,0,NA,NA,2,2,1,10,90,0.54987,NA
3,3,1,1,15,3,3,0,NA,NA,2,2,0,0,90,0.43314,NA
3,3,1,1,16,4,4,0,NA,NA,2,2,0,0,90,0.26685,NA
3,3,1,1,17,2,2,0,NA,NA,2,2,0,0,90,0.25023,NA
3,3,1,1,18,2,2,0,NA,NA,2,2,0,0,90,0.54547,NA
3,3,1,1,19,1,1,0,NA,NA,2,2,1,10,100,0.31624,NA
3,3,1,1,20,3,3,0,NA,NA,2,2,1,10,110,0.31626,NA
3,3,1,1,21,2,2,0,NA,NA,2,2,0,0,110,0.28346,NA
3,3,1,1,22,1,1,0,NA,NA,2,2,1,10,120,0.29965,NA
3,3,1,1,23,3,3,0,NA,NA,2,2,1,10,130,0.33284,NA
3,3,1,1,24,1,1,0,NA,NA,2,2,1,10,140,0.26624,NA
3,3,1,1,25,1,1,0,NA,NA,2,2,1,10,150,0.31629,NA
3,3,1,1,26,1,1,0,NA,NA,2,2,1,10,160,0.31626,NA
3,3,1,1,27,4,4,0,NA,NA,2,2,0,0,160,0.29983,NA
3,3,1,1,28,2,2,0,NA,NA,2,2,0,0,160,0.41641,NA
3,3,1,1,29,1,1,0,NA,NA,2,2,1,10,170,0.3169,NA
3,3,1,1,30,1,1,0,NA,NA,2,2,1,10,180,0.48309,NA
3,3,1,2,31,3,3,0,NA,NA,2,2,0,0,180,0.36705,NA
3,3,1,2,32,4,4,0,NA,NA,2,2,1,10,190,0.64957,NA
3,3,1,2,33,2,2,0,NA,NA,2,2,1,10,200,0.50007,NA
3,3,1,2,34,2,2,0,NA,NA,2,2,1,10,210,0.56672,NA
3,3,1,2,35,2,2,0,NA,NA,2,2,0,0,210,0.34954,NA
3,3,1,2,36,1,1,0,NA,NA,2,2,0,0,210,0.33276,NA
3,3,1,2,37,1,1,0,NA,NA,2,2,0,0,210,0.31688,NA
3,3,1,2,38,2,2,0,NA,NA,2,2,1,10,220,0.36742,NA
3,3,1,2,39,1,1,0,NA,NA,2,2,0,0,220,0.3503,NA
3,3,1,2,40,2,2,0,NA,NA,2,2,1,10,230,0.41673,NA
3,3,1,2,41,1,1,0,NA,NA,2,2,0,0,230,0.44982,NA
3,3,1,2,42,2,2,0,NA,NA,2,2,0,0,230,0.45909,NA
3,3,1,2,43,1,1,0,NA,NA,2,2,1,10,240,0.58409,NA
3,3,1,2,44,1,1,0,NA,NA,2,2,1,10,250,0.36694,NA
3,3,1,2,45,4,4,0,NA,NA,2,2,1,10,260,0.46624,NA
3,3,1,2,46,1,1,0,NA,NA,2,2,1,10,270,0.3002,NA
3,3,1,2,47,3,3,0,NA,NA,2,2,1,10,280,0.55044,NA
3,3,1,2,48,3,3,0,NA,NA,2,2,1,10,290,0.25014,NA
3,3,1,2,49,4,4,0,NA,NA,2,2,1,10,300,0.33369,NA
3,3,1,2,50,4,4,0,NA,NA,2,2,0,0,300,0.44984,NA
3,3,1,2,51,3,3,0,NA,NA,2,2,0,0,300,0.40011,NA
3,3,1,2,52,1,1,0,NA,NA,2,2,1,10,310,0.45011,NA
3,3,1,2,53,2,2,0,NA,NA,2,2,0,0,310,0.33346,NA
3,3,1,2,54,1,1,0,NA,NA,2,2,0,0,310,0.51631,NA
3,3,1,2,55,1,1,0,NA,NA,2,2,0,0,310,0.30003,NA
3,3,1,2,56,1,1,0,NA,NA,2,2,1,10,320,0.24951,NA
3,3,1,2,57,3,3,0,NA,NA,2,2,1,10,330,0.36704,NA
3,3,1,2,58,3,3,0,NA,NA,2,2,1,10,340,0.41674,NA
3,3,1,2,59,1,1,0,NA,NA,2,2,1,10,350,0.28365,NA
3,3,1,2,60,2,2,0,NA,NA,2,2,0,0,350,0.25023,NA
3,3,1,3,61,3,3,0,NA,NA,2,2,1,10,360,0.28353,NA
3,3,1,3,62,1,1,0,NA,NA,2,2,1,10,370,0.34713,NA
3,3,1,3,63,2,2,0,NA,NA,2,2,1,10,380,0.38356,NA
3,3,1,3,64,2,2,0,NA,NA,2,2,0,0,380,0.3667,NA
3,3,1,3,65,1,1,0,NA,NA,2,2,1,10,390,0.4668,NA
3,3,1,3,66,4,4,0,NA,NA,2,2,0,0,390,0.44971,NA
3,3,1,3,67,3,3,0,NA,NA,2,2,1,10,400,0.40025,NA
3,3,1,3,68,2,2,0,NA,NA,2,2,0,0,400,0.50005,NA
3,3,1,3,69,1,1,0,NA,NA,2,2,0,0,400,0.40074,NA
3,3,1,3,70,2,2,0,NA,NA,2,2,0,0,400,0.29742,NA
3,3,1,3,71,2,2,0,NA,NA,2,2,0,0,400,0.31696,NA
3,3,1,3,72,1,1,0,NA,NA,2,2,1,10,410,0.33344,NA
3,3,1,3,73,3,3,0,NA,NA,2,2,1,10,420,0.40021,NA
3,3,1,3,74,4,4,0,NA,NA,2,2,0,0,420,0.28358,NA
3,3,1,3,75,3,3,0,NA,NA,2,2,1,10,430,0.38363,NA
3,3,1,3,76,4,4,0,NA,NA,2,2,1,10,440,0.40022,NA
3,3,1,3,77,1,1,0,NA,NA,2,2,1,10,450,0.3327,NA
3,3,1,3,78,1,1,0,NA,NA,2,2,1,10,460,0.26703,NA
3,3,1,3,79,1,1,0,NA,NA,2,2,1,10,470,0.26685,NA
3,3,1,3,80,4,4,0,NA,NA,2,2,0,0,470,0.28293,NA
3,3,1,3,81,1,1,0,NA,NA,2,2,1,10,480,0.26683,NA
3,3,1,3,82,3,3,0,NA,NA,2,2,1,10,490,0.28354,NA
3,3,1,3,83,2,2,0,NA,NA,2,2,0,0,490,0.34952,NA
3,3,1,3,84,1,1,0,NA,NA,2,2,1,10,500,0.3169,NA
3,3,1,3,85,1,1,0,NA,NA,2,2,1,10,510,0.66623,NA
3,3,1,3,86,2,2,0,NA,NA,2,2,0,0,510,0.39956,NA
3,3,1,3,87,2,2,0,NA,NA,2,2,1,10,520,0.36727,NA
3,3,1,3,88,1,1,0,NA,NA,2,2,1,10,530,0.40018,NA
3,3,1,3,89,3,3,0,NA,NA,2,2,1,10,540,0.45035,NA
3,3,1,3,90,1,1,0,NA,NA,2,2,1,10,550,0.7164,NA
3,3,1,4,91,2,2,0,NA,NA,2,2,0,0,550,0.46613,NA
3,3,1,4,92,1,1,0,NA,NA,2,2,1,10,560,0.3995,NA
3,3,1,4,93,3,3,0,NA,NA,2,2,1,10,570,0.36708,NA
3,3,1,4,94,1,1,0,NA,NA,2,2,0,0,570,0.30039,NA
3,3,1,4,95,3,3,0,NA,NA,2,2,1,10,580,0.7773,NA
3,3,1,4,96,4,4,0,NA,NA,2,2,0,0,580,0.37734,NA
3,3,1,4,97,1,1,0,NA,NA,2,2,1,10,590,0.40011,NA
3,3,1,4,98,4,4,0,NA,NA,2,2,0,0,590,0.41619,NA
3,3,1,4,99,1,1,0,NA,NA,2,2,1,10,600,0.35037,NA
3,3,1,4,100,2,2,0,NA,NA,2,2,0,0,600,0.33287,NA
3,3,1,4,101,3,3,0,NA,NA,2,2,1,10,610,0.86325,NA
3,3,1,4,102,3,3,0,NA,NA,2,2,1,10,620,0.70037,NA
3,3,1,4,103,2,2,0,NA,NA,2,2,0,0,620,0.5499,NA
3,3,1,4,104,2,2,0,NA,NA,2,2,1,10,630,0.46626,NA
3,3,1,4,105,1,1,0,NA,NA,2,2,0,0,630,0.61699,NA
3,3,1,4,106,1,1,0,NA,NA,2,2,1,10,640,0.29954,NA
3,3,1,4,107,1,1,0,NA,NA,2,2,1,10,650,0.33286,NA
3,3,1,4,108,4,4,0,NA,NA,2,2,0,0,650,0.39972,NA
3,3,1,4,109,2,2,0,NA,NA,2,2,0,0,650,0.68346,NA
3,3,1,4,110,1,1,0,NA,NA,2,2,1,10,660,0.49987,NA
3,3,1,4,111,1,1,0,NA,NA,2,2,1,10,670,0.43359,NA
3,3,1,4,112,1,1,0,NA,NA,2,2,0,0,670,0.58211,NA
3,3,1,4,113,1,1,0,NA,NA,2,2,0,0,670,0.31614,NA
3,3,1,4,114,3,3,0,NA,NA,2,2,1,10,680,0.54952,NA
3,3,1,4,115,1,1,0,NA,NA,2,2,1,10,690,0.36621,NA
3,3,1,4,116,3,3,0,NA,NA,2,2,1,10,700,0.39995,NA
3,3,1,4,117,2,2,0,NA,NA,2,2,0,0,700,0.48319,NA
3,3,1,4,118,4,4,0,NA,NA,2,2,0,0,700,0.30038,NA
3,3,1,4,119,2,2,0,NA,NA,2,2,1,10,710,0.73258,NA
3,3,1,4,120,2,2,0,NA,NA,2,2,0,0,710,0.39999,NA
3,3,1,5,121,3,3,0,NA,NA,2,2,0,0,710,0.50027,NA
3,3,1,5,122,2,2,0,NA,NA,2,2,0,0,710,0.25456,NA
3,3,1,5,123,1,1,0,NA,NA,2,2,0,0,710,0.38761,NA
3,3,1,5,124,1,1,0,NA,NA,2,2,1,10,720,0.26684,NA
3,3,1,5,125,3,3,0,NA,NA,2,2,0,0,720,0.35889,NA
3,3,1,5,126,1,1,0,NA,NA,2,2,1,10,730,0.335,NA
3,3,1,5,127,2,2,0,NA,NA,2,2,0,0,730,0.31709,NA
3,3,1,5,128,1,1,0,NA,NA,2,2,0,0,730,0.31681,NA
3,3,1,5,129,1,1,0,NA,NA,2,2,1,10,740,0.31714,NA
3,3,1,5,130,4,4,0,NA,NA,2,2,0,0,740,1.0162,NA
3,3,1,5,131,2,2,0,NA,NA,2,2,0,0,740,0.39999,NA
3,3,1,5,132,4,4,0,NA,NA,2,2,0,0,740,0.28359,NA
3,3,1,5,133,4,4,0,NA,NA,2,2,1,10,750,0.59953,NA
3,3,1,5,134,2,2,0,NA,NA,2,2,1,10,760,0.3502,NA
3,3,1,5,135,2,2,0,NA,NA,2,2,0,0,760,0.30016,NA
3,3,1,5,136,3,3,0,NA,NA,2,2,0,0,760,0.2668,NA
3,3,1,5,137,1,1,0,NA,NA,2,2,1,10,770,0.3335,NA
3,3,1,5,138,2,2,0,NA,NA,2,2,0,0,770,0.35011,NA
3,3,1,5,139,1,1,0,NA,NA,2,2,1,10,780,0.30012,NA
3,3,1,5,140,3,3,0,NA,NA,2,2,0,0,780,0.26672,NA
3,3,1,5,141,3,3,0,NA,NA,2,2,0,0,780,0.25023,NA
3,3,1,5,142,3,3,0,NA,NA,2,2,1,10,790,0.26693,NA
3,3,1,5,143,1,1,0,NA,NA,2,2,1,10,800,0.30018,NA
3,3,1,5,144,1,1,0,NA,NA,2,2,0,0,800,0.33278,NA
3,3,1,5,145,1,1,0,NA,NA,2,2,0,0,800,0.01673,NA
3,3,1,5,146,4,4,0,NA,NA,2,2,1,10,810,0.48808,NA
3,3,1,5,147,2,2,0,NA,NA,2,2,1,10,820,0.58372,NA
3,3,1,5,148,1,1,0,NA,NA,2,2,0,0,820,0.34955,NA
3,3,1,5,149,2,2,0,NA,NA,2,2,0,0,820,0.33372,NA
3,3,1,5,150,1,1,0,NA,NA,2,2,1,10,830,0.53351,NA
3,3,1,6,151,3,3,0,NA,NA,2,2,0,0,830,0.55002,NA
3,3,1,6,152,3,3,0,NA,NA,2,2,1,10,840,0.34942,NA
3,3,1,6,153,1,1,0,NA,NA,2,2,0,0,840,0.41621,NA
3,3,1,6,154,1,1,0,NA,NA,2,2,1,10,850,0.29289,NA
3,3,1,6,155,2,2,0,NA,NA,2,2,0,0,850,0.28343,NA
3,3,1,6,156,4,4,0,NA,NA,2,2,0,0,850,0.4162,NA
3,3,1,6,157,4,4,0,NA,NA,2,2,1,10,860,0.0001673,NA
3,3,1,6,158,1,1,0,NA,NA,2,2,0,0,860,0.33356,NA
3,3,1,6,159,3,3,0,NA,NA,2,2,1,10,870,0.31624,NA
3,3,1,6,160,3,3,0,NA,NA,2,2,1,10,880,0.26688,NA
3,3,1,6,161,1,1,0,NA,NA,2,2,1,10,890,0.24956,NA
3,3,1,6,162,3,3,0,NA,NA,2,2,1,10,900,0.29965,NA
3,3,1,6,163,2,2,0,NA,NA,2,2,0,0,900,0.26632,NA
3,3,1,6,164,4,4,0,NA,NA,2,2,1,10,910,0.41666,NA
3,3,1,6,165,2,2,0,NA,NA,2,2,1,10,920,0.31703,NA
3,3,1,6,166,1,1,0,NA,NA,2,2,1,10,930,0.2834,NA
3,3,1,6,167,1,1,0,NA,NA,2,2,0,0,930,0.48286,NA
3,3,1,6,168,1,1,0,NA,NA,2,2,1,10,940,0.39962,NA
3,3,1,6,169,1,1,0,NA,NA,2,2,0,0,940,0.33298,NA
3,3,1,6,170,4,4,0,NA,NA,2,2,0,0,940,0.50017,NA
3,3,1,6,171,1,1,0,NA,NA,2,2,1,10,950,0.28288,NA
3,3,1,6,172,2,2,0,NA,NA,2,2,1,10,960,0.29948,NA
3,3,1,6,173,1,1,0,NA,NA,2,2,1,10,970,0.26686,NA
3,3,1,6,174,3,3,0,NA,NA,2,2,0,0,970,0.30021,NA
3,3,1,6,175,1,1,0,NA,NA,2,2,1,10,980,0.28351,NA
3,3,1,6,176,2,2,0,NA,NA,2,2,0,0,980,0.45878,NA
3,3,1,6,177,2,2,0,NA,NA,2,2,0,0,980,0.40016,NA
3,3,1,6,178,2,2,0,NA,NA,2,2,0,0,980,0.36667,NA
3,3,1,6,179,2,2,0,NA,NA,2,2,0,0,980,0.24953,NA
3,3,1,6,180,1,1,0,NA,NA,2,2,0,0,980,0.26689,NA
3,3,1,7,181,1,1,0,NA,NA,2,2,1,10,990,0.20028,NA
3,3,1,7,182,4,4,0,NA,NA,2,2,0,0,990,0.28293,NA
3,3,1,7,183,4,4,0,NA,NA,2,2,0,0,990,0.2668,NA
3,3,1,7,184,3,3,0,NA,NA,2,2,1,10,1000,0.28347,NA
3,3,1,7,185,2,2,0,NA,NA,1,1,0,0,1000,0.71973,NA
3,3,1,7,186,1,1,0,NA,NA,2,2,1,10,1010,1.7861,NA
3,3,1,7,187,1,1,0,NA,NA,2,2,0,0,1010,0.29718,NA
3,3,1,7,188,3,3,0,NA,NA,2,2,0,0,1010,0.43284,NA
3,3,1,7,189,2,2,0,NA,NA,2,2,0,0,1010,0.28291,NA
3,3,1,7,190,2,2,0,NA,NA,2,2,0,0,1010,0.25029,NA
3,3,1,7,191,1,1,0,NA,NA,2,2,1,10,1020,0.43366,NA
3,3,1,7,192,4,4,0,NA,NA,2,2,0,0,1020,0.33341,NA
3,3,1,7,193,3,3,0,NA,NA,2,2,1,10,1030,0.34958,NA
3,3,1,7,194,2,2,0,NA,NA,2,2,0,0,1030,0.45018,NA
3,3,1,7,195,3,3,0,NA,NA,2,2,1,10,1040,0.63311,NA
3,3,1,7,196,1,1,0,NA,NA,2,2,1,10,1050,0.28294,NA
3,3,1,7,197,3,3,0,NA,NA,2,2,1,10,1060,0.30012,NA
3,3,1,7,198,1,1,0,NA,NA,2,2,1,10,1070,0.28353,NA
3,3,1,7,199,2,2,0,NA,NA,2,2,0,0,1070,0.26787,NA
3,3,1,7,200,2,2,0,NA,NA,2,2,0,0,1070,0.3162,NA
3,3,1,7,201,1,1,0,NA,NA,2,2,1,10,1080,0.2669,NA
3,3,1,7,202,1,1,0,NA,NA,1,1,0,0,1080,1.2611,NA
3,3,1,7,203,1,1,0,NA,NA,1,1,0,0,1080,0.28373,NA
3,3,1,7,204,2,2,0,NA,NA,1,1,0,0,1080,0.0001462,NA
3,3,1,7,205,2,2,0,NA,NA,1,1,0,0,1080,0.21692,NA
3,3,1,7,206,1,1,0,NA,NA,1,1,0,0,1080,0.25035,NA
3,3,1,7,207,1,1,0,NA,NA,1,1,0,0,1080,0.38365,NA
3,3,1,7,208,1,1,0,NA,NA,2,2,0,0,1080,1.0377,NA
3,3,1,7,209,3,3,0,NA,NA,2,2,1,10,1090,0.30675,NA
3,3,1,7,210,4,4,0,NA,NA,2,2,0,0,1090,0.30225,NA
3,3,2,1,1,4,4,1,NA,NA,1,1,1,10,1100,1.6887,NA
3,3,2,1,2,1,2,1,NA,NA,1,1,1,10,1110,0.31675,NA
3,3,2,1,3,2,4,3,NA,NA,4,4,1,10,1120,0.86299,NA
3,3,2,1,4,6,4,2,NA,NA,4,4,0,0,1120,0.88268,NA
3,3,2,1,5,1,1,2,NA,NA,2,2,0,0,1120,1.1602,NA
3,3,2,1,6,3,1,3,NA,NA,3,3,0,0,1120,2.0453,NA
3,3,2,1,7,5,3,2,NA,NA,3,3,1,10,1130,0.51685,NA
3,3,2,1,8,2,3,4,NA,NA,4,4,1,10,1140,0.93438,NA
3,3,2,1,9,3,3,1,NA,NA,3,3,1,10,1150,0.96398,NA
3,3,2,1,10,4,1,4,NA,NA,4,4,1,10,1160,0.83311,NA
3,3,2,1,11,6,2,4,NA,NA,4,4,0,0,1160,0.45888,NA
3,3,2,1,12,5,2,3,NA,NA,3,3,1,10,1170,1.0039,NA
3,3,2,2,13,6,2,4,NA,NA,4,4,0,0,1170,1.0954,NA
3,3,2,2,14,3,3,1,NA,NA,3,3,0,0,1170,1.0635,NA
3,3,2,2,15,1,2,1,NA,NA,2,2,0,0,1170,0.70406,NA
3,3,2,2,16,2,3,4,NA,NA,4,4,1,10,1180,1.1359,NA
3,3,2,2,17,5,3,2,NA,NA,3,3,1,10,1190,1.0304,NA
3,3,2,2,18,1,1,2,NA,NA,2,2,0,0,1190,1.0476,NA
3,3,2,2,19,2,4,3,NA,NA,4,4,1,10,1200,0.88929,NA
3,3,2,2,20,4,1,4,NA,NA,4,4,1,10,1210,0.89665,NA
3,3,2,2,21,4,4,1,NA,NA,4,4,0,0,1210,0.53597,NA
3,3,2,2,22,3,1,3,NA,NA,3,3,1,10,1220,0.75052,NA
3,3,2,2,23,6,4,2,NA,NA,4,4,1,10,1230,0.76401,NA
3,3,2,2,24,5,2,3,NA,NA,3,3,1,10,1240,1.3605,NA
3,3,2,3,25,2,3,4,NA,NA,4,4,0,0,1240,0.97382,NA
3,3,2,3,26,4,1,4,NA,NA,4,4,0,0,1240,0.43376,NA
3,3,2,3,27,4,4,1,NA,NA,4,4,0,0,1240,0.51624,NA
3,3,2,3,28,5,2,3,NA,NA,3,3,1,10,1250,1.0349,NA
3,3,2,3,29,2,4,3,NA,NA,4,4,0,0,1250,1.2453,NA
3,3,2,3,30,1,2,1,NA,NA,2,2,0,0,1250,1.143,NA
3,3,2,3,31,3,3,1,NA,NA,3,3,1,10,1260,0.76538,NA
3,3,2,3,32,1,1,2,NA,NA,2,2,0,0,1260,0.9779,NA
3,3,2,3,33,6,2,4,NA,NA,4,4,1,10,1270,0.83802,NA
3,3,2,3,34,3,1,3,NA,NA,3,3,0,0,1270,1.16,NA
3,3,2,3,35,5,3,2,NA,NA,3,3,0,0,1270,0.58401,NA
3,3,2,3,36,6,4,2,NA,NA,4,4,0,0,1270,1.9223,NA
3,3,2,4,37,6,2,4,NA,NA,4,4,0,0,1270,0.68347,NA
3,3,2,4,38,1,1,2,NA,NA,2,2,0,0,1270,1.2477,NA
3,3,2,4,39,3,3,1,NA,NA,3,3,0,0,1270,0.99255,NA
3,3,2,4,40,2,3,4,NA,NA,3,3,0,0,1270,0.53282,NA
3,3,2,4,41,6,4,2,NA,NA,4,4,1,10,1280,0.89058,NA
3,3,2,4,42,2,4,3,NA,NA,4,4,0,0,1280,0.66612,NA
3,3,2,4,43,3,1,3,NA,NA,3,3,1,10,1290,0.75503,NA
3,3,2,4,44,1,2,1,NA,NA,2,2,0,0,1290,0.93582,NA
3,3,2,4,45,4,4,1,NA,NA,4,4,0,0,1290,0.73384,NA
3,3,2,4,46,4,1,4,NA,NA,4,4,0,0,1290,0.51622,NA
3,3,2,4,47,5,2,3,NA,NA,3,3,1,10,1300,0.89109,NA
3,3,2,4,48,5,3,2,NA,NA,2,2,0,0,1300,1.1071,NA
3,3,2,5,49,5,3,2,NA,NA,3,3,1,10,1310,1.3703,NA
3,3,2,5,50,5,2,3,NA,NA,3,3,1,10,1320,0.36723,NA
3,3,2,5,51,6,4,2,NA,NA,4,4,0,0,1320,0.98819,NA
3,3,2,5,52,2,3,4,NA,NA,4,4,0,0,1320,0.59959,NA
3,3,2,5,53,3,3,1,NA,NA,3,3,0,0,1320,0.75531,NA
3,3,2,5,54,1,2,1,NA,NA,2,2,0,0,1320,1.1601,NA
3,3,2,5,55,1,1,2,NA,NA,2,2,1,10,1330,5.4837,NA
3,3,2,5,56,4,1,4,NA,NA,4,4,0,0,1330,0.98927,NA
3,3,2,5,57,6,2,4,NA,NA,2,2,1,10,1340,0.61713,NA
3,3,2,5,58,4,4,1,NA,NA,4,4,1,10,1350,1.1632,NA
3,3,2,5,59,2,4,3,NA,NA,4,4,1,10,1360,0.39949,NA
3,3,2,5,60,3,1,3,NA,NA,3,3,1,10,1370,0.82826,NA
3,3,2,6,61,3,3,1,NA,NA,3,3,1,10,1380,1.8995,NA
3,3,2,6,62,1,2,1,NA,NA,2,2,0,0,1380,0.67884,NA
3,3,2,6,63,1,1,2,NA,NA,2,2,0,0,1380,1.8629,NA
3,3,2,6,64,2,4,3,NA,NA,4,4,1,10,1390,0.80801,NA
3,3,2,6,65,5,2,3,NA,NA,3,3,1,10,1400,0.85067,NA
3,3,2,6,66,6,2,4,NA,NA,4,4,0,0,1400,0.66015,NA
3,3,2,6,67,4,1,4,NA,NA,4,4,0,0,1400,0.39951,NA
3,3,2,6,68,3,1,3,NA,NA,3,3,1,10,1410,9.1854,NA
3,3,2,6,69,5,3,2,NA,NA,3,3,0,0,1410,0.65025,NA
3,3,2,6,70,4,4,1,NA,NA,4,4,0,0,1410,1.158,NA
3,3,2,6,71,6,4,2,NA,NA,4,4,0,0,1410,0.41607,NA
3,3,2,6,72,2,3,4,NA,NA,4,4,0,0,1410,0.60034,NA
3,3,2,7,73,5,3,2,NA,NA,3,3,1,10,1420,1.0328,NA
3,3,2,7,74,2,3,4,NA,NA,4,4,0,0,1420,0.57902,NA
3,3,2,7,75,6,2,4,NA,NA,4,4,0,0,1420,0.67111,NA
3,3,2,7,76,6,4,2,NA,NA,4,4,0,0,1420,0.36694,NA
3,3,2,7,77,4,1,4,NA,NA,4,4,0,0,1420,0.38356,NA
3,3,2,7,78,3,1,3,NA,NA,3,3,1,10,1430,1.2574,NA
3,3,2,7,79,4,4,1,NA,NA,4,4,0,0,1430,0.62651,NA
3,3,2,7,80,2,4,3,NA,NA,4,4,0,0,1430,0.45032,NA
3,3,2,7,81,1,1,2,NA,NA,2,2,0,0,1430,1.0226,NA
3,3,2,7,82,1,2,1,NA,NA,2,2,0,0,1430,1.5695,NA
3,3,2,7,83,5,2,3,NA,NA,3,3,1,10,1440,0.86199,NA
3,3,2,7,84,3,3,1,NA,NA,3,3,0,0,1440,0.46641,NA
3,3,2,8,85,5,3,2,NA,NA,3,3,0,0,1440,3.7837,NA
3,3,2,8,86,2,3,4,NA,NA,3,3,1,10,1450,0.70008,NA
3,3,2,8,87,3,1,3,NA,NA,3,3,1,10,1460,0.52328,NA
3,3,2,8,88,1,2,1,NA,NA,2,2,0,0,1460,1.0818,NA
3,3,2,8,89,1,1,2,NA,NA,2,2,0,0,1460,0.34975,NA
3,3,2,8,90,6,4,2,NA,NA,4,4,0,0,1460,0.99009,NA
3,3,2,8,91,4,4,1,NA,NA,4,4,0,0,1460,0.67444,NA
3,3,2,8,92,5,2,3,NA,NA,3,3,1,10,1470,0.77037,NA
3,3,2,8,93,2,4,3,NA,NA,4,4,1,10,1480,0.7841,NA
3,3,2,8,94,4,1,4,NA,NA,4,4,0,0,1480,0.30053,NA
3,3,2,8,95,3,3,1,NA,NA,3,3,0,0,1480,0.88284,NA
3,3,2,8,96,6,2,4,NA,NA,4,4,0,0,1480,0.7952,NA
3,3,2,9,97,3,3,1,NA,NA,3,3,0,0,1480,1.3508,NA
3,3,2,9,98,6,2,4,NA,NA,4,4,0,0,1480,1.7406,NA
3,3,2,9,99,1,2,1,NA,NA,2,2,1,10,1490,1.4017,NA
3,3,2,9,100,1,1,2,NA,NA,2,2,0,0,1490,0.813,NA
3,3,2,9,101,5,2,3,NA,NA,3,3,1,10,1500,1.0644,NA
3,3,2,9,102,4,4,1,NA,NA,4,4,0,0,1500,0.7697,NA
3,3,2,9,103,4,1,4,NA,NA,4,4,0,0,1500,0.49949,NA
3,3,2,9,104,6,4,2,NA,NA,4,4,0,0,1500,0.36485,NA
3,3,2,9,105,3,1,3,NA,NA,3,3,1,10,1510,0.91389,NA
3,3,2,9,106,5,3,2,NA,NA,3,3,1,10,1520,0.38339,NA
3,3,2,9,107,2,4,3,NA,NA,4,4,1,10,1530,0.95576,NA
3,3,2,9,108,2,3,4,NA,NA,4,4,1,10,1540,0.66603,NA
3,3,2,10,109,4,1,4,NA,NA,4,4,0,0,1540,0.36619,NA
3,3,2,10,110,3,3,1,NA,NA,3,3,1,10,1550,0.98963,NA
3,3,2,10,111,2,4,3,NA,NA,4,4,1,10,1560,0.99361,NA
3,3,2,10,112,1,2,1,NA,NA,2,2,1,10,1570,0.84585,NA
3,3,2,10,113,6,4,2,NA,NA,4,4,0,0,1570,0.81529,NA
3,3,2,10,114,4,4,1,NA,NA,4,4,0,0,1570,0.33373,NA
3,3,2,10,115,5,3,2,NA,NA,3,3,1,10,1580,0.79221,NA
3,3,2,10,116,1,1,2,NA,NA,2,2,0,0,1580,1.1719,NA
3,3,2,10,117,3,1,3,NA,NA,3,3,1,10,1590,0.71291,NA
3,3,2,10,118,2,3,4,NA,NA,4,4,0,0,1590,1.0799,NA
3,3,2,10,119,5,2,3,NA,NA,3,3,1,10,1600,1.1453,NA
3,3,2,10,120,6,2,4,NA,NA,4,4,1,10,1610,0.74234,NA
3,3,3,1,1,7,1,3,2,4,4,4,1,10,1620,0.71834,NA
3,3,3,1,2,7,3,2,4,1,3,3,0,0,1620,0.85256,NA
3,3,3,1,3,7,4,1,2,3,2,2,0,0,1620,0.28598,NA
3,3,3,1,4,7,1,3,4,2,1,1,1,10,1630,0.24634,NA
3,3,3,1,5,7,1,4,2,3,4,4,0,0,1630,0.30079,NA
3,3,3,1,6,7,3,1,4,2,4,4,1,10,1640,0.24961,NA
3,3,3,1,7,7,2,1,3,4,4,4,0,0,1640,0.23288,NA
3,3,3,1,8,7,4,1,3,2,4,4,1,10,1650,0.0669,NA
3,3,3,1,9,7,3,4,1,2,4,4,0,0,1650,0.1496,NA
3,3,3,1,10,7,4,2,1,3,4,4,1,10,1660,0.23282,NA
3,3,3,1,11,7,3,4,2,1,4,4,0,0,1660,0.24945,NA
3,3,3,1,12,7,3,2,1,4,4,4,0,0,1660,0.3838,NA
3,3,3,1,13,7,4,1,2,3,4,4,1,10,1670,0.56615,NA
3,3,3,1,14,7,1,4,2,3,4,4,0,0,1670,0.21622,NA
3,3,3,1,15,7,3,1,4,2,4,4,0,0,1670,0.94969,NA
3,3,3,1,16,7,2,1,3,4,4,4,0,0,1670,0.6829,NA
3,3,3,1,17,7,2,4,3,1,4,4,0,0,1670,0.98277,NA
3,3,3,1,18,7,2,3,4,1,4,4,0,0,1670,0.76628,NA
3,3,3,1,19,7,4,3,1,2,4,4,1,10,1680,0.60064,NA
3,3,3,1,20,7,2,1,4,3,4,4,0,0,1680,0.53349,NA
3,3,4,1,1,1,1,NA,NA,NA,NA,NA,NA,NA,NA,NA,16.5
3,3,4,1,2,2,2,NA,NA,NA,NA,NA,NA,NA,NA,NA,41.8333
3,3,4,1,3,3,3,NA,NA,NA,NA,NA,NA,NA,NA,NA,70.6667
3,3,4,1,4,4,4,NA,NA,NA,NA,NA,NA,NA,NA,NA,90.5
4,1,1,1,1,2,2,0,NA,NA,2,2,0,0,0,4.3555,NA
4,1,1,1,2,2,2,0,NA,NA,2,2,1,10,10,2.984,NA
4,1,1,1,3,1,1,0,NA,NA,2,2,1,10,20,5.063,NA
4,1,1,1,4,2,2,0,NA,NA,1,1,0,0,20,0.81898,NA
4,1,1,1,5,3,3,0,NA,NA,2,2,1,10,30,0.56881,NA
4,1,1,1,6,3,3,0,NA,NA,1,1,0,0,30,3.1617,NA
4,1,1,1,7,1,1,0,NA,NA,2,2,1,10,40,0.65782,NA
4,1,1,1,8,1,1,0,NA,NA,2,2,0,0,40,1.3747,NA
4,1,1,1,9,1,1,0,NA,NA,1,1,0,0,40,1.8944,NA
4,1,1,1,10,1,1,0,NA,NA,2,2,0,0,40,0.80193,NA
4,1,1,1,11,3,3,0,NA,NA,2,2,0,0,40,0.41653,NA
4,1,1,1,12,1,1,0,NA,NA,2,2,1,10,50,0.55014,NA
4,1,1,1,13,2,2,0,NA,NA,1,1,0,0,50,0.60672,NA
4,1,1,1,14,1,1,0,NA,NA,2,2,1,10,60,0.57337,NA
4,1,1,1,15,3,3,0,NA,NA,2,2,0,0,60,0.45004,NA
4,1,1,1,16,4,4,0,NA,NA,2,2,0,0,60,1.5943,NA
4,1,1,1,17,3,3,0,NA,NA,1,1,0,0,60,0.25013,NA
4,1,1,1,18,2,2,0,NA,NA,2,2,1,10,70,0.39865,NA
4,1,1,1,19,2,2,0,NA,NA,2,2,1,10,80,0.40511,NA
4,1,1,1,20,1,1,0,NA,NA,2,2,0,0,80,0.62749,NA
4,1,1,1,21,2,2,0,NA,NA,2,2,0,0,80,1.3163,NA
4,1,1,1,22,4,4,0,NA,NA,2,2,0,0,80,0.77946,NA
4,1,1,1,23,2,2,0,NA,NA,1,1,0,0,80,0.83617,NA
4,1,1,1,24,3,3,0,NA,NA,2,2,1,10,90,1.0087,NA
4,1,1,1,25,4,4,0,NA,NA,2,2,0,0,90,0.49574,NA
4,1,1,1,26,4,4,0,NA,NA,2,2,1,10,100,0.28275,NA
4,1,1,1,27,1,1,0,NA,NA,2,2,1,10,110,1.1101,NA
4,1,1,1,28,1,1,0,NA,NA,1,1,0,0,110,1.2006,NA
4,1,1,1,29,1,1,0,NA,NA,1,1,0,0,110,0.2552,NA
4,1,1,1,30,1,1,0,NA,NA,2,2,1,10,120,1.5245,NA
4,1,1,2,31,2,2,0,NA,NA,2,2,1,10,130,0.27867,NA
4,1,1,2,32,1,1,0,NA,NA,2,2,0,0,130,0.50524,NA
4,1,1,2,33,1,1,0,NA,NA,2,2,1,10,140,0.33202,NA
4,1,1,2,34,2,2,0,NA,NA,1,1,0,0,140,1.4129,NA
4,1,1,2,35,2,2,0,NA,NA,2,2,0,0,140,0.45235,NA
4,1,1,2,36,1,1,0,NA,NA,1,1,0,0,140,0.62382,NA
4,1,1,2,37,1,1,0,NA,NA,2,2,1,10,150,1.0059,NA
4,1,1,2,38,1,1,0,NA,NA,2,2,1,10,160,0.20011,NA
4,1,1,2,39,3,3,0,NA,NA,1,1,0,0,160,0.42031,NA
4,1,1,2,40,4,4,0,NA,NA,2,2,0,0,160,0.41712,NA
4,1,1,2,41,1,1,0,NA,NA,2,2,1,10,170,1.0954,NA
4,1,1,2,42,4,4,0,NA,NA,1,1,0,0,170,4.5789,NA
4,1,1,2,43,4,4,0,NA,NA,1,1,0,0,170,0.96338,NA
4,1,1,2,44,2,2,0,NA,NA,2,2,0,0,170,0.27448,NA
4,1,1,2,45,3,3,0,NA,NA,2,2,0,0,170,0.43017,NA
4,1,1,2,46,3,3,0,NA,NA,1,1,0,0,170,0.30712,NA
4,1,1,2,47,1,1,0,NA,NA,2,2,1,10,180,0.67765,NA
4,1,1,2,48,2,2,0,NA,NA,2,2,0,0,180,0.23443,NA
4,1,1,2,49,1,1,0,NA,NA,2,2,0,0,180,0.0001657,NA
4,1,1,2,50,2,2,0,NA,NA,2,2,0,0,180,0.67818,NA
4,1,1,2,51,1,1,0,NA,NA,2,2,0,0,180,0.61042,NA
4,1,1,2,52,4,4,0,NA,NA,1,1,0,0,180,0.31259,NA
4,1,1,2,53,1,1,0,NA,NA,2,2,1,10,190,0.3151,NA
4,1,1,2,54,1,1,0,NA,NA,2,2,1,10,200,0.36532,NA
4,1,1,2,55,1,1,0,NA,NA,2,2,1,10,210,2.509,NA
4,1,1,2,56,3,3,0,NA,NA,1,1,0,0,210,1.1998,NA
4,1,1,2,57,3,3,0,NA,NA,1,1,0,0,210,0.33329,NA
4,1,1,2,58,2,2,0,NA,NA,2,2,0,0,210,0.45433,NA
4,1,1,2,59,3,3,0,NA,NA,2,2,1,10,220,0.91444,NA
4,1,1,2,60,2,2,0,NA,NA,2,2,0,0,220,0.66887,NA
4,1,1,3,61,1,1,0,NA,NA,2,2,1,10,230,2.4323,NA
4,1,1,3,62,1,1,0,NA,NA,1,1,0,0,230,1.6778,NA
4,1,1,3,63,1,1,0,NA,NA,2,2,0,0,230,0.57851,NA
4,1,1,3,64,2,2,0,NA,NA,2,2,1,10,240,1.6337,NA
4,1,1,3,65,4,4,0,NA,NA,1,1,0,0,240,0.80701,NA
4,1,1,3,66,3,3,0,NA,NA,2,2,1,10,250,0.62983,NA
4,1,1,3,67,4,4,0,NA,NA,1,1,0,0,250,0.27586,NA
4,1,1,3,68,1,1,0,NA,NA,2,2,1,10,260,0.27105,NA
4,1,1,3,69,3,3,0,NA,NA,1,1,0,0,260,0.69031,NA
4,1,1,3,70,3,3,0,NA,NA,2,2,0,0,260,0.61403,NA
4,1,1,3,71,2,2,0,NA,NA,2,2,0,0,260,0.37157,NA
4,1,1,3,72,1,1,0,NA,NA,2,2,1,10,270,0.78806,NA
4,1,1,3,73,3,3,0,NA,NA,2,2,1,10,280,1.3953,NA
4,1,1,3,74,1,1,0,NA,NA,2,2,1,10,290,1.2027,NA
4,1,1,3,75,1,1,0,NA,NA,1,1,0,0,290,0.61728,NA
4,1,1,3,76,2,2,0,NA,NA,2,2,1,10,300,0.3991,NA
4,1,1,3,77,1,1,0,NA,NA,1,1,0,0,300,0.95059,NA
4,1,1,3,78,1,1,0,NA,NA,2,2,1,10,310,0.22214,NA
4,1,1,3,79,4,4,0,NA,NA,2,2,0,0,310,0.72484,NA
4,1,1,3,80,2,2,0,NA,NA,2,2,1,10,320,0.48338,NA
4,1,1,3,81,1,1,0,NA,NA,2,2,0,0,320,0.2833,NA
4,1,1,3,82,1,1,0,NA,NA,2,2,1,10,330,0.75003,NA
4,1,1,3,83,3,3,0,NA,NA,2,2,1,10,340,1.1995,NA
4,1,1,3,84,2,2,0,NA,NA,2,2,1,10,350,0.36663,NA
4,1,1,3,85,2,2,0,NA,NA,2,2,1,10,360,0.40023,NA
4,1,1,3,86,3,3,0,NA,NA,1,1,0,0,360,0.46737,NA
4,1,1,3,87,4,4,0,NA,NA,2,2,0,0,360,0.48698,NA
4,1,1,3,88,2,2,0,NA,NA,2,2,0,0,360,0.26559,NA
4,1,1,3,89,2,2,0,NA,NA,2,2,0,0,360,0.41658,NA
4,1,1,3,90,1,1,0,NA,NA,2,2,1,10,370,0.38368,NA
4,1,1,4,91,1,1,0,NA,NA,2,2,0,0,370,0.49947,NA
4,1,1,4,92,1,1,0,NA,NA,2,2,0,0,370,0.3169,NA
4,1,1,4,93,2,2,0,NA,NA,1,1,0,0,370,0.48027,NA
4,1,1,4,94,1,1,0,NA,NA,2,2,1,10,380,0.42741,NA
4,1,1,4,95,3,3,0,NA,NA,2,2,1,10,390,0.28912,NA
4,1,1,4,96,1,1,0,NA,NA,2,2,0,0,390,0.30887,NA
4,1,1,4,97,1,1,0,NA,NA,2,2,1,10,400,0.35006,NA
4,1,1,4,98,3,3,0,NA,NA,2,2,1,10,410,1.1358,NA
4,1,1,4,99,3,3,0,NA,NA,1,1,0,0,410,0.42564,NA
4,1,1,4,100,2,2,0,NA,NA,2,2,0,0,410,1.2239,NA
4,1,1,4,101,4,4,0,NA,NA,1,1,0,0,410,0.32569,NA
4,1,1,4,102,4,4,0,NA,NA,1,1,0,0,410,1.8,NA
4,1,1,4,103,4,4,0,NA,NA,2,2,0,0,410,0.27793,NA
4,1,1,4,104,1,1,0,NA,NA,2,2,0,0,410,0.35395,NA
4,1,1,4,105,1,1,0,NA,NA,2,2,0,0,410,0.61829,NA
4,1,1,4,106,1,1,0,NA,NA,1,1,0,0,410,7.3364,NA
4,1,1,4,107,4,4,0,NA,NA,1,1,0,0,410,0.57841,NA
4,1,1,4,108,1,1,0,NA,NA,2,2,1,10,420,0.36945,NA
4,1,1,4,109,1,1,0,NA,NA,2,2,1,10,430,0.34996,NA
4,1,1,4,110,1,1,0,NA,NA,2,2,1,10,440,0.46673,NA
4,1,1,4,111,3,3,0,NA,NA,2,2,1,10,450,0.48653,NA
4,1,1,4,112,2,2,0,NA,NA,2,2,0,0,450,0.28361,NA
4,1,1,4,113,3,3,0,NA,NA,2,2,1,10,460,0.21687,NA
4,1,1,4,114,1,1,0,NA,NA,1,1,0,0,460,0.65882,NA
4,1,1,4,115,2,2,0,NA,NA,2,2,1,10,470,0.69636,NA
4,1,1,4,116,3,3,0,NA,NA,1,1,0,0,470,0.74613,NA
4,1,1,4,117,2,2,0,NA,NA,2,2,0,0,470,0.32311,NA
4,1,1,4,118,2,2,0,NA,NA,2,2,0,0,470,0.90109,NA
4,1,1,4,119,2,2,0,NA,NA,2,2,1,10,480,0.79979,NA
4,1,1,4,120,2,2,0,NA,NA,1,1,0,0,480,0.57466,NA
4,1,1,5,121,1,1,0,NA,NA,2,2,1,10,490,0.26284,NA
4,1,1,5,122,3,3,0,NA,NA,2,2,1,10,500,0.36681,NA
4,1,1,5,123,2,2,0,NA,NA,2,2,0,0,500,3.7174,NA
4,1,1,5,124,2,2,0,NA,NA,2,2,0,0,500,0.64965,NA
4,1,1,5,125,4,4,0,NA,NA,2,2,0,0,500,1.3853,NA
4,1,1,5,126,1,1,0,NA,NA,2,2,1,10,510,0.34992,NA
4,1,1,5,127,1,1,0,NA,NA,2,2,0,0,510,0.35283,NA
4,1,1,5,128,1,1,0,NA,NA,2,2,1,10,520,0.21694,NA
4,1,1,5,129,4,4,0,NA,NA,1,1,0,0,520,0.36041,NA
4,1,1,5,130,2,2,0,NA,NA,2,2,0,0,520,0.41633,NA
4,1,1,5,131,2,2,0,NA,NA,1,1,0,0,520,0.60613,NA
4,1,1,5,132,2,2,0,NA,NA,2,2,0,0,520,0.51724,NA
4,1,1,5,133,2,2,0,NA,NA,2,2,1,10,530,0.68683,NA
4,1,1,5,134,1,1,0,NA,NA,2,2,1,10,540,0.53084,NA
4,1,1,5,135,3,3,0,NA,NA,2,2,1,10,550,1.5316,NA
4,1,1,5,136,2,2,0,NA,NA,1,1,0,0,550,1.5896,NA
4,1,1,5,137,2,2,0,NA,NA,2,2,0,0,550,0.26832,NA
4,1,1,5,138,1,1,0,NA,NA,2,2,0,0,550,0.3761,NA
4,1,1,5,139,3,3,0,NA,NA,2,2,0,0,550,2.0162,NA
4,1,1,5,140,1,1,0,NA,NA,2,2,0,0,550,0.30008,NA
4,1,1,5,141,1,1,0,NA,NA,1,1,0,0,550,0.29575,NA
4,1,1,5,142,1,1,0,NA,NA,1,1,0,0,550,0.31678,NA
4,1,1,5,143,1,1,0,NA,NA,2,2,1,10,560,0.42927,NA
4,1,1,5,144,1,1,0,NA,NA,2,2,1,10,570,0.31687,NA
4,1,1,5,145,3,3,0,NA,NA,1,1,0,0,570,0.41227,NA
4,1,1,5,146,1,1,0,NA,NA,2,2,1,10,580,0.259,NA
4,1,1,5,147,3,3,0,NA,NA,2,2,0,0,580,0.20002,NA
4,1,1,5,148,4,4,0,NA,NA,1,1,0,0,580,0.34226,NA
4,1,1,5,149,3,3,0,NA,NA,2,2,0,0,580,0.39175,NA
4,1,1,5,150,4,4,0,NA,NA,1,1,0,0,580,0.28681,NA
4,1,1,6,151,1,1,0,NA,NA,1,1,0,0,580,0.65018,NA
4,1,1,6,152,1,1,0,NA,NA,2,2,1,10,590,0.27031,NA
4,1,1,6,153,2,2,0,NA,NA,2,2,1,10,600,0.46663,NA
4,1,1,6,154,1,1,0,NA,NA,1,1,0,0,600,0.51006,NA
4,1,1,6,155,4,4,0,NA,NA,1,1,0,0,600,0.73729,NA
4,1,1,6,156,1,1,0,NA,NA,2,2,0,0,600,0.38599,NA
4,1,1,6,157,3,3,0,NA,NA,2,2,1,10,610,0.31653,NA
4,1,1,6,158,2,2,0,NA,NA,2,2,0,0,610,0.25002,NA
4,1,1,6,159,3,3,0,NA,NA,2,2,1,10,620,0.33333,NA
4,1,1,6,160,1,1,0,NA,NA,2,2,0,0,620,0.26678,NA
4,1,1,6,161,1,1,0,NA,NA,2,2,1,10,630,0.24967,NA
4,1,1,6,162,2,2,0,NA,NA,1,1,0,0,630,0.5293,NA
4,1,1,6,163,2,2,0,NA,NA,2,2,0,0,630,0.21704,NA
4,1,1,6,164,1,1,0,NA,NA,2,2,1,10,640,0.26696,NA
4,1,1,6,165,4,4,0,NA,NA,1,1,0,0,640,0.59723,NA
4,1,1,6,166,2,2,0,NA,NA,2,2,1,10,650,0.21155,NA
4,1,1,6,167,3,3,0,NA,NA,2,2,1,10,660,0.24936,NA
4,1,1,6,168,4,4,0,NA,NA,2,2,0,0,660,0.53334,NA
4,1,1,6,169,2,2,0,NA,NA,2,2,0,0,660,0.31698,NA
4,1,1,6,170,1,1,0,NA,NA,2,2,1,10,670,0.4499,NA
4,1,1,6,171,2,2,0,NA,NA,2,2,0,0,670,0.25522,NA
4,1,1,6,172,4,4,0,NA,NA,1,1,0,0,670,0.41198,NA
4,1,1,6,173,1,1,0,NA,NA,2,2,0,0,670,0.49847,NA
4,1,1,6,174,3,3,0,NA,NA,2,2,1,10,680,0.42083,NA
4,1,1,6,175,1,1,0,NA,NA,1,1,0,0,680,0.45078,NA
4,1,1,6,176,1,1,0,NA,NA,2,2,0,0,680,0.2954,NA
4,1,1,6,177,1,1,0,NA,NA,2,2,0,0,680,0.72257,NA
4,1,1,6,178,3,3,0,NA,NA,2,2,1,10,690,0.32436,NA
4,1,1,6,179,2,2,0,NA,NA,2,2,1,10,700,0.55791,NA
4,1,1,6,180,3,3,0,NA,NA,2,2,1,10,710,1.6393,NA
4,1,1,7,181,3,3,0,NA,NA,2,2,1,10,720,0.50027,NA
4,1,1,7,182,2,2,0,NA,NA,2,2,0,0,720,0.2506,NA
4,1,1,7,183,1,1,0,NA,NA,2,2,1,10,730,0.41684,NA
4,1,1,7,184,2,2,0,NA,NA,2,2,0,0,730,0.69975,NA
4,1,1,7,185,3,3,0,NA,NA,2,2,1,10,740,0.59636,NA
4,1,1,7,186,1,1,0,NA,NA,1,1,0,0,740,0.49909,NA
4,1,1,7,187,3,3,0,NA,NA,2,2,1,10,750,0.25016,NA
4,1,1,7,188,2,2,0,NA,NA,1,1,0,0,750,0.39465,NA
4,1,1,7,189,1,1,0,NA,NA,2,2,1,10,760,0.47347,NA
4,1,1,7,190,4,4,0,NA,NA,1,1,0,0,760,0.38967,NA
4,1,1,7,191,1,1,0,NA,NA,2,2,0,0,760,0.43698,NA
4,1,1,7,192,1,1,0,NA,NA,2,2,1,10,770,0.72995,NA
4,1,1,7,193,1,1,0,NA,NA,1,1,0,0,770,0.22743,NA
4,1,1,7,194,2,2,0,NA,NA,2,2,0,0,770,0.6095,NA
4,1,1,7,195,4,4,0,NA,NA,1,1,0,0,770,0.37636,NA
4,1,1,7,196,3,3,0,NA,NA,2,2,0,0,770,0.50418,NA
4,1,1,7,197,4,4,0,NA,NA,1,1,0,0,770,0.42645,NA
4,1,1,7,198,2,2,0,NA,NA,2,2,0,0,770,0.34506,NA
4,1,1,7,199,3,3,0,NA,NA,2,2,1,10,780,0.67426,NA
4,1,1,7,200,1,1,0,NA,NA,1,1,0,0,780,0.59984,NA
4,1,1,7,201,1,1,0,NA,NA,2,2,1,10,790,0.22119,NA
4,1,1,7,202,1,1,0,NA,NA,2,2,1,10,800,0.39486,NA
4,1,1,7,203,4,4,0,NA,NA,1,1,0,0,800,0.5303,NA
4,1,1,7,204,3,3,0,NA,NA,2,2,1,10,810,0.24334,NA
4,1,1,7,205,1,1,0,NA,NA,2,2,0,0,810,0.40918,NA
4,1,1,7,206,1,1,0,NA,NA,2,2,0,0,810,0.55,NA
4,1,1,7,207,1,1,0,NA,NA,2,2,1,10,820,0.36817,NA
4,1,1,7,208,2,2,0,NA,NA,1,1,0,0,820,0.52059,NA
4,1,1,7,209,2,2,0,NA,NA,2,2,1,10,830,0.20978,NA
4,1,1,7,210,2,2,0,NA,NA,2,2,0,0,830,0.40004,NA
4,1,2,1,1,1,2,1,NA,NA,1,1,1,10,840,1.7568,NA
4,1,2,1,2,6,4,2,NA,NA,2,2,0,0,840,1.5537,NA
4,1,2,1,3,3,3,1,NA,NA,3,3,1,10,850,1.4784,NA
4,1,2,1,4,2,3,4,NA,NA,3,3,1,10,860,1.1162,NA
4,1,2,1,5,5,2,3,NA,NA,2,2,0,0,860,1.7172,NA
4,1,2,1,6,4,4,1,NA,NA,1,1,0,0,860,1.5324,NA
4,1,2,1,7,5,3,2,NA,NA,3,3,1,10,870,2.0266,NA
4,1,2,1,8,1,1,2,NA,NA,1,1,1,10,880,3.1009,NA
4,1,2,1,9,2,4,3,NA,NA,3,3,1,10,890,1.0526,NA
4,1,2,1,10,6,2,4,NA,NA,2,2,0,0,890,0.83698,NA
4,1,2,1,11,3,1,3,NA,NA,1,1,0,0,890,0.9359,NA
4,1,2,1,12,4,1,4,NA,NA,1,1,0,0,890,0.68289,NA
4,1,2,2,13,2,4,3,NA,NA,3,3,1,10,900,0.74112,NA
4,1,2,2,14,3,1,3,NA,NA,3,3,0,0,900,0.71708,NA
4,1,2,2,15,4,4,1,NA,NA,1,1,1,10,910,1.0816,NA
4,1,2,2,16,1,2,1,NA,NA,1,1,0,0,910,1.6182,NA
4,1,2,2,17,3,3,1,NA,NA,3,3,1,10,920,1.7011,NA
4,1,2,2,18,5,3,2,NA,NA,2,2,0,0,920,0.87616,NA
4,1,2,2,19,6,2,4,NA,NA,2,2,0,0,920,0.82042,NA
4,1,2,2,20,5,2,3,NA,NA,3,3,1,10,930,1.6154,NA
4,1,2,2,21,4,1,4,NA,NA,1,1,1,10,940,1.2982,NA
4,1,2,2,22,6,4,2,NA,NA,2,2,0,0,940,1.5453,NA
4,1,2,2,23,2,3,4,NA,NA,3,3,1,10,950,1.415,NA
4,1,2,2,24,1,1,2,NA,NA,2,2,1,10,960,10.0176,NA
4,1,2,3,25,1,1,2,NA,NA,2,2,1,10,970,0.64471,NA
4,1,2,3,26,1,2,1,NA,NA,1,1,1,10,980,0.91849,NA
4,1,2,3,27,6,4,2,NA,NA,2,2,0,0,980,0.76495,NA
4,1,2,3,28,2,3,4,NA,NA,3,3,1,10,990,0.8341,NA
4,1,2,3,29,3,3,1,NA,NA,1,1,0,0,990,1.0516,NA
4,1,2,3,30,4,1,4,NA,NA,1,1,0,0,990,0.57335,NA
4,1,2,3,31,3,1,3,NA,NA,1,1,1,10,1000,0.92232,NA
4,1,2,3,32,6,2,4,NA,NA,2,2,1,10,1010,0.86419,NA
4,1,2,3,33,2,4,3,NA,NA,3,3,0,0,1010,0.84046,NA
4,1,2,3,34,5,3,2,NA,NA,2,2,0,0,1010,0.89155,NA
4,1,2,3,35,5,2,3,NA,NA,2,2,0,0,1010,0.79549,NA
4,1,2,3,36,4,4,1,NA,NA,1,1,1,10,1020,1.1516,NA
4,1,2,4,37,5,2,3,NA,NA,3,3,1,10,1030,0.98857,NA
4,1,2,4,38,3,1,3,NA,NA,3,3,0,0,1030,1.9662,NA
4,1,2,4,39,4,4,1,NA,NA,1,1,0,0,1030,0.90141,NA
4,1,2,4,40,2,3,4,NA,NA,3,3,1,10,1040,1.1731,NA
4,1,2,4,41,1,2,1,NA,NA,2,2,0,0,1040,1.1609,NA
4,1,2,4,42,6,2,4,NA,NA,2,2,1,10,1050,1.3161,NA
4,1,2,4,43,3,3,1,NA,NA,1,1,1,10,1060,1.7889,NA
4,1,2,4,44,6,4,2,NA,NA,2,2,1,10,1070,1.2578,NA
4,1,2,4,45,4,1,4,NA,NA,1,1,1,10,1080,1.4662,NA
4,1,2,4,46,5,3,2,NA,NA,2,2,1,10,1090,1.099,NA
4,1,2,4,47,2,4,3,NA,NA,3,3,1,10,1100,0.61821,NA
4,1,2,4,48,1,1,2,NA,NA,2,2,0,0,1100,0.87712,NA
4,1,2,5,49,4,1,4,NA,NA,1,1,1,10,1110,0.71705,NA
4,1,2,5,50,3,3,1,NA,NA,3,3,1,10,1120,1.4598,NA
4,1,2,5,51,1,2,1,NA,NA,1,1,0,0,1120,1.1652,NA
4,1,2,5,52,1,1,2,NA,NA,2,2,1,10,1130,1.6502,NA
4,1,2,5,53,5,3,2,NA,NA,2,2,1,10,1140,1.0172,NA
4,1,2,5,54,2,4,3,NA,NA,3,3,1,10,1150,0.86999,NA
4,1,2,5,55,6,2,4,NA,NA,2,2,1,10,1160,0.8551,NA
4,1,2,5,56,6,4,2,NA,NA,2,2,0,0,1160,0.46614,NA
4,1,2,5,57,4,4,1,NA,NA,1,1,1,10,1170,0.72831,NA
4,1,2,5,58,2,3,4,NA,NA,3,3,0,0,1170,1.3429,NA
4,1,2,5,59,3,1,3,NA,NA,1,1,0,0,1170,1.2841,NA
4,1,2,5,60,5,2,3,NA,NA,2,2,0,0,1170,1.1565,NA
4,1,2,6,61,2,4,3,NA,NA,3,3,0,0,1170,0.84213,NA
4,1,2,6,62,5,2,3,NA,NA,2,2,0,0,1170,1.6037,NA
4,1,2,6,63,2,3,4,NA,NA,3,3,1,10,1180,1.9034,NA
4,1,2,6,64,6,2,4,NA,NA,2,2,0,0,1180,0.9268,NA
4,1,2,6,65,3,1,3,NA,NA,3,3,0,0,1180,0.57344,NA
4,1,2,6,66,5,3,2,NA,NA,2,2,0,0,1180,0.81008,NA
4,1,2,6,67,4,4,1,NA,NA,1,1,0,0,1180,1.4371,NA
4,1,2,6,68,1,2,1,NA,NA,2,2,1,10,1190,1.015,NA
4,1,2,6,69,3,3,1,NA,NA,3,3,1,10,1200,0.75351,NA
4,1,2,6,70,6,4,2,NA,NA,2,2,0,0,1200,0.66293,NA
4,1,2,6,71,4,1,4,NA,NA,1,1,1,10,1210,1.0324,NA
4,1,2,6,72,1,1,2,NA,NA,1,1,1,10,1220,0.94964,NA
4,1,2,7,73,3,3,1,NA,NA,3,3,1,10,1230,2.8638,NA
4,1,2,7,74,6,4,2,NA,NA,2,2,0,0,1230,1.0562,NA
4,1,2,7,75,2,3,4,NA,NA,3,3,1,10,1240,1.05,NA
4,1,2,7,76,2,4,3,NA,NA,3,3,0,0,1240,0.54965,NA
4,1,2,7,77,6,2,4,NA,NA,2,2,0,0,1240,0.59201,NA
4,1,2,7,78,1,2,1,NA,NA,2,2,1,10,1250,0.4837,NA
4,1,2,7,79,4,1,4,NA,NA,1,1,1,10,1260,0.99626,NA
4,1,2,7,80,3,1,3,NA,NA,3,3,0,0,1260,0.93722,NA
4,1,2,7,81,5,2,3,NA,NA,2,2,0,0,1260,0.85465,NA
4,1,2,7,82,1,1,2,NA,NA,2,2,0,0,1260,0.54966,NA
4,1,2,7,83,5,3,2,NA,NA,3,3,1,10,1270,1.1734,NA
4,1,2,7,84,4,4,1,NA,NA,1,1,0,0,1270,3.4254,NA
4,1,2,8,85,4,1,4,NA,NA,1,1,0,0,1270,0.86843,NA
4,1,2,8,86,3,1,3,NA,NA,3,3,1,10,1280,2.0686,NA
4,1,2,8,87,5,2,3,NA,NA,2,2,1,10,1290,2.3818,NA
4,1,2,8,88,3,3,1,NA,NA,3,3,1,10,1300,1.3934,NA
4,1,2,8,89,2,3,4,NA,NA,3,3,1,10,1310,1.5896,NA
4,1,2,8,90,6,4,2,NA,NA,2,2,0,0,1310,0.84237,NA
4,1,2,8,91,2,4,3,NA,NA,3,3,1,10,1320,0.67537,NA
4,1,2,8,92,4,4,1,NA,NA,1,1,0,0,1320,0.89935,NA
4,1,2,8,93,1,1,2,NA,NA,2,2,1,10,1330,1.435,NA
4,1,2,8,94,6,2,4,NA,NA,4,4,0,0,1330,1.9652,NA
4,1,2,8,95,1,2,1,NA,NA,1,1,0,0,1330,0.64997,NA
4,1,2,8,96,5,3,2,NA,NA,2,2,0,0,1330,0.80272,NA
4,1,2,9,97,5,3,2,NA,NA,3,3,1,10,1340,0.96567,NA
4,1,2,9,98,2,3,4,NA,NA,3,3,1,10,1350,0.71618,NA
4,1,2,9,99,3,3,1,NA,NA,3,3,1,10,1360,1.1331,NA
4,1,2,9,100,4,1,4,NA,NA,1,1,0,0,1360,1.5187,NA
4,1,2,9,101,6,2,4,NA,NA,2,2,0,0,1360,1.0133,NA
4,1,2,9,102,6,4,2,NA,NA,2,2,0,0,1360,2.0726,NA
4,1,2,9,103,1,2,1,NA,NA,2,2,1,10,1370,0.72952,NA
4,1,2,9,104,1,1,2,NA,NA,2,2,0,0,1370,1.7499,NA
4,1,2,9,105,3,1,3,NA,NA,3,3,1,10,1380,1.8215,NA
4,1,2,9,106,4,4,1,NA,NA,1,1,0,0,1380,3.4488,NA
4,1,2,9,107,5,2,3,NA,NA,2,2,0,0,1380,0.76195,NA
4,1,2,9,108,2,4,3,NA,NA,3,3,1,10,1390,0.62299,NA
4,1,2,10,109,4,1,4,NA,NA,1,1,1,10,1400,0.8334,NA
4,1,2,10,110,3,3,1,NA,NA,1,1,1,10,1410,1.3474,NA
4,1,2,10,111,2,3,4,NA,NA,3,3,0,0,1410,9.9609,NA
4,1,2,10,112,1,1,2,NA,NA,2,2,1,10,1420,0.81326,NA
4,1,2,10,113,3,1,3,NA,NA,3,3,1,10,1430,2.6008,NA
4,1,2,10,114,1,2,1,NA,NA,2,2,0,0,1430,0.57959,NA
4,1,2,10,115,4,4,1,NA,NA,1,1,1,10,1440,1.1282,NA
4,1,2,10,116,6,2,4,NA,NA,2,2,0,0,1440,0.79093,NA
4,1,2,10,117,2,4,3,NA,NA,3,3,1,10,1450,0.54661,NA
4,1,2,10,118,5,3,2,NA,NA,2,2,0,0,1450,1.0648,NA
4,1,2,10,119,5,2,3,NA,NA,3,3,1,10,1460,0.56124,NA
4,1,2,10,120,6,4,2,NA,NA,2,2,0,0,1460,0.53502,NA
4,1,3,1,1,7,1,3,2,4,1,1,1,10,1470,2.0348,NA
4,1,3,1,2,7,3,1,2,4,3,3,1,10,1480,0.71615,NA
4,1,3,1,3,7,4,2,1,3,2,2,1,10,1490,0.49105,NA
4,1,3,1,4,7,4,2,1,3,3,3,1,10,1500,0.35489,NA
4,1,3,1,5,7,1,4,3,2,3,3,1,10,1510,0.44961,NA
4,1,3,1,6,7,1,3,2,4,1,1,0,0,1510,0.70567,NA
4,1,3,1,7,7,2,1,4,3,2,2,1,10,1520,0.46496,NA
4,1,3,1,8,7,2,3,4,1,1,1,0,0,1520,0.3056,NA
4,1,3,1,9,7,4,3,2,1,1,1,1,10,1530,0.2332,NA
4,1,3,1,10,7,1,4,2,3,3,3,1,10,1540,0.4109,NA
4,1,3,1,11,7,2,3,1,4,1,1,1,10,1550,0.59814,NA
4,1,3,1,12,7,2,3,1,4,2,2,1,10,1560,0.49733,NA
4,1,3,1,13,7,3,4,2,1,3,3,1,10,1570,0.47372,NA
4,1,3,1,14,7,3,4,1,2,2,2,1,10,1580,0.23312,NA
4,1,3,1,15,7,1,4,3,2,1,1,1,10,1590,0.42741,NA
4,1,3,1,16,7,1,3,2,4,1,1,0,0,1590,0.3172,NA
4,1,3,1,17,7,3,1,4,2,2,2,0,0,1590,0.65255,NA
4,1,3,1,18,7,1,3,4,2,3,3,0,0,1590,0.24625,NA
4,1,3,1,19,7,2,1,3,4,2,2,0,0,1590,0.37581,NA
4,1,3,1,20,7,1,2,3,4,1,1,1,10,1600,1.8446,NA
4,1,4,1,1,1,1,NA,NA,NA,NA,NA,NA,NA,NA,NA,50.3333
4,1,4,1,2,2,2,NA,NA,NA,NA,NA,NA,NA,NA,NA,39
4,1,4,1,3,3,3,NA,NA,NA,NA,NA,NA,NA,NA,NA,78.3333
4,1,4,1,4,4,4,NA,NA,NA,NA,NA,NA,NA,NA,NA,0.83333
5,2,1,1,1,3,3,0,NA,NA,2,2,1,10,10,2.0927,NA
5,2,1,1,2,1,1,0,NA,NA,2,2,1,10,20,1.5935,NA
5,2,1,1,3,1,1,0,NA,NA,2,2,1,10,30,1.2723,NA
5,2,1,1,4,3,3,0,NA,NA,2,2,1,10,40,0.48498,NA
5,2,1,1,5,4,4,0,NA,NA,2,2,0,0,40,1.1842,NA
5,2,1,1,6,4,4,0,NA,NA,1,1,0,0,40,0.67879,NA
5,2,1,1,7,3,3,0,NA,NA,2,2,1,10,50,0.98699,NA
5,2,1,1,8,2,2,0,NA,NA,2,2,0,0,50,0.64265,NA
5,2,1,1,9,3,3,0,NA,NA,2,2,1,10,60,0.62381,NA
5,2,1,1,10,3,3,0,NA,NA,2,2,1,10,70,0.47019,NA
5,2,1,1,11,1,1,0,NA,NA,2,2,1,10,80,1.09,NA
5,2,1,1,12,2,2,0,NA,NA,1,1,0,0,80,0.40542,NA
5,2,1,1,13,4,4,0,NA,NA,1,1,0,0,80,0.44957,NA
5,2,1,1,14,2,2,0,NA,NA,1,1,0,0,80,0.36621,NA
5,2,1,1,15,2,2,0,NA,NA,1,1,0,0,80,0.34968,NA
5,2,1,1,16,1,1,0,NA,NA,2,2,1,10,90,0.72873,NA
5,2,1,1,17,4,4,0,NA,NA,2,2,0,0,90,0.69933,NA
5,2,1,1,18,1,1,0,NA,NA,2,2,0,0,90,0.382,NA
5,2,1,1,19,3,3,0,NA,NA,2,2,1,10,100,0.25263,NA
5,2,1,1,20,3,3,0,NA,NA,2,2,0,0,100,0.29976,NA
5,2,1,1,21,3,3,0,NA,NA,2,2,1,10,110,0.7662,NA
5,2,1,1,22,1,1,0,NA,NA,2,2,0,0,110,0.28313,NA
5,2,1,1,23,1,1,0,NA,NA,2,2,1,10,120,0.23972,NA
5,2,1,1,24,1,1,0,NA,NA,2,2,0,0,120,0.26929,NA
5,2,1,1,25,2,2,0,NA,NA,2,2,0,0,120,0.32926,NA
5,2,1,1,26,3,3,0,NA,NA,2,2,1,10,130,0.2828,NA
5,2,1,1,27,1,1,0,NA,NA,2,2,1,10,140,0.3016,NA
5,2,1,1,28,4,4,0,NA,NA,2,2,1,10,150,0.29616,NA
5,2,1,1,29,3,3,0,NA,NA,2,2,1,10,160,0.3165,NA
5,2,1,1,30,1,1,0,NA,NA,2,2,1,10,170,0.18117,NA
5,2,1,2,31,2,2,0,NA,NA,2,2,1,10,180,0.4207,NA
5,2,1,2,32,4,4,0,NA,NA,2,2,1,10,190,0.32999,NA
5,2,1,2,33,1,1,0,NA,NA,2,2,0,0,190,0.2601,NA
5,2,1,2,34,2,2,0,NA,NA,2,2,0,0,190,0.2831,NA
5,2,1,2,35,1,1,0,NA,NA,2,2,0,0,190,0.36619,NA
5,2,1,2,36,2,2,0,NA,NA,2,2,1,10,200,0.52381,NA
5,2,1,2,37,3,3,0,NA,NA,1,1,0,0,200,0.4863,NA
5,2,1,2,38,3,3,0,NA,NA,2,2,1,10,210,0.24973,NA
5,2,1,2,39,3,3,0,NA,NA,2,2,1,10,220,0.99066,NA
5,2,1,2,40,1,1,0,NA,NA,2,2,1,10,230,0.39005,NA
5,2,1,2,41,2,2,0,NA,NA,2,2,0,0,230,0.37285,NA
5,2,1,2,42,4,4,0,NA,NA,2,2,0,0,230,0.2165,NA
5,2,1,2,43,4,4,0,NA,NA,2,2,0,0,230,0.0001891,NA
5,2,1,2,44,3,3,0,NA,NA,1,1,0,0,230,0.48938,NA
5,2,1,2,45,3,3,0,NA,NA,2,2,1,10,240,0.41266,NA
5,2,1,2,46,4,4,0,NA,NA,2,2,0,0,240,0.45925,NA
5,2,1,2,47,3,3,0,NA,NA,2,2,0,0,240,0.26398,NA
5,2,1,2,48,3,3,0,NA,NA,2,2,0,0,240,1.1322,NA
5,2,1,2,49,2,2,0,NA,NA,2,2,1,10,250,0.37255,NA
5,2,1,2,50,3,3,0,NA,NA,1,1,0,0,250,1.3564,NA
5,2,1,2,51,3,3,0,NA,NA,1,1,0,0,250,0.25412,NA
5,2,1,2,52,1,1,0,NA,NA,2,2,1,10,260,0.40198,NA
5,2,1,2,53,1,1,0,NA,NA,2,2,1,10,270,0.23306,NA
5,2,1,2,54,1,1,0,NA,NA,2,2,0,0,270,0.33326,NA
5,2,1,2,55,1,1,0,NA,NA,1,1,0,0,270,0.81538,NA
5,2,1,2,56,1,1,0,NA,NA,2,2,1,10,280,0.45315,NA
5,2,1,2,57,1,1,0,NA,NA,2,2,0,0,280,0.39957,NA
5,2,1,2,58,1,1,0,NA,NA,2,2,1,10,290,0.31358,NA
5,2,1,2,59,3,3,0,NA,NA,2,2,1,10,300,1.8833,NA
5,2,1,2,60,4,4,0,NA,NA,2,2,0,0,300,0.72652,NA
5,2,1,3,61,2,2,0,NA,NA,2,2,0,0,300,0.48793,NA
5,2,1,3,62,3,3,0,NA,NA,2,2,1,10,310,0.3722,NA
5,2,1,3,63,1,1,0,NA,NA,2,2,1,10,320,0.67519,NA
5,2,1,3,64,2,2,0,NA,NA,2,2,0,0,320,0.23313,NA
5,2,1,3,65,3,3,0,NA,NA,1,1,0,0,320,0.66892,NA
5,2,1,3,66,1,1,0,NA,NA,2,2,0,0,320,0.040954,NA
5,2,1,3,67,4,4,0,NA,NA,2,2,0,0,320,0.47858,NA
5,2,1,3,68,4,4,0,NA,NA,2,2,1,10,330,0.28994,NA
5,2,1,3,69,2,2,0,NA,NA,1,1,0,0,330,0.80571,NA
5,2,1,3,70,3,3,0,NA,NA,2,2,1,10,340,0.52416,NA
5,2,1,3,71,3,3,0,NA,NA,2,2,1,10,350,0.28319,NA
5,2,1,3,72,3,3,0,NA,NA,1,1,0,0,350,0.36206,NA
5,2,1,3,73,1,1,0,NA,NA,2,2,1,10,360,0.25044,NA
5,2,1,3,74,3,3,0,NA,NA,2,2,1,10,370,1.2152,NA
5,2,1,3,75,2,2,0,NA,NA,2,2,1,10,380,0.5333,NA
5,2,1,3,76,3,3,0,NA,NA,2,2,1,10,390,0.62979,NA
5,2,1,3,77,3,3,0,NA,NA,1,1,0,0,390,0.53932,NA
5,2,1,3,78,4,4,0,NA,NA,2,2,0,0,390,0.35684,NA
5,2,1,3,79,1,1,0,NA,NA,2,2,1,10,400,0.41399,NA
5,2,1,3,80,1,1,0,NA,NA,2,2,1,10,410,0.15001,NA
5,2,1,3,81,4,4,0,NA,NA,2,2,0,0,410,0.28299,NA
5,2,1,3,82,1,1,0,NA,NA,2,2,1,10,420,0.23334,NA
5,2,1,3,83,1,1,0,NA,NA,2,2,1,10,430,1.3484,NA
5,2,1,3,84,4,4,0,NA,NA,2,2,0,0,430,1.2502,NA
5,2,1,3,85,2,2,0,NA,NA,1,1,0,0,430,0.66677,NA
5,2,1,3,86,3,3,0,NA,NA,2,2,0,0,430,0.25461,NA
5,2,1,3,87,1,1,0,NA,NA,2,2,1,10,440,0.51717,NA
5,2,1,3,88,1,1,0,NA,NA,2,2,0,0,440,24.8129,NA
5,2,1,3,89,3,3,0,NA,NA,2,2,1,10,450,0.84285,NA
5,2,1,3,90,1,1,0,NA,NA,2,2,0,0,450,0.49589,NA
5,2,1,4,91,3,3,0,NA,NA,2,2,1,10,460,0.74739,NA
5,2,1,4,92,3,3,0,NA,NA,2,2,1,10,470,0.49229,NA
5,2,1,4,93,4,4,0,NA,NA,2,2,0,0,470,0.95178,NA
5,2,1,4,94,3,3,0,NA,NA,2,2,1,10,480,0.79193,NA
5,2,1,4,95,1,1,0,NA,NA,2,2,1,10,490,0.37505,NA
5,2,1,4,96,2,2,0,NA,NA,2,2,0,0,490,0.16666,NA
5,2,1,4,97,1,1,0,NA,NA,2,2,1,10,500,0.03046,NA
5,2,1,4,98,1,1,0,NA,NA,2,2,1,10,510,0.18332,NA
5,2,1,4,99,1,1,0,NA,NA,2,2,1,10,520,0.36635,NA
5,2,1,4,100,4,4,0,NA,NA,2,2,0,0,520,0.41613,NA
5,2,1,4,101,1,1,0,NA,NA,1,1,0,0,520,0.23345,NA
5,2,1,4,102,4,4,0,NA,NA,2,2,0,0,520,0.29463,NA
5,2,1,4,103,1,1,0,NA,NA,2,2,1,10,530,0.27384,NA
5,2,1,4,104,3,3,0,NA,NA,2,2,1,10,540,0.38392,NA
5,2,1,4,105,3,3,0,NA,NA,2,2,0,0,540,0.31679,NA
5,2,1,4,106,1,1,0,NA,NA,2,2,0,0,540,0.41733,NA
5,2,1,4,107,3,3,0,NA,NA,2,2,0,0,540,0.62178,NA
5,2,1,4,108,3,3,0,NA,NA,1,1,0,0,540,0.50649,NA
5,2,1,4,109,4,4,0,NA,NA,2,2,0,0,540,0.44536,NA
5,2,1,4,110,4,4,0,NA,NA,1,1,0,0,540,0.58656,NA
5,2,1,4,111,1,1,0,NA,NA,2,2,1,10,550,0.33798,NA
5,2,1,4,112,3,3,0,NA,NA,2,2,0,0,550,0.33184,NA
5,2,1,4,113,2,2,0,NA,NA,2,2,0,0,550,0.13398,NA
5,2,1,4,114,1,1,0,NA,NA,2,2,1,10,560,1.1256,NA
5,2,1,4,115,2,2,0,NA,NA,2,2,1,10,570,1.0568,NA
5,2,1,4,116,2,2,0,NA,NA,2,2,0,0,570,6.8206,NA
5,2,1,4,117,3,3,0,NA,NA,2,2,1,10,580,2.603,NA
5,2,1,4,118,1,1,0,NA,NA,2,2,1,10,590,0.46694,NA
5,2,1,4,119,2,2,0,NA,NA,2,2,1,10,600,0.29969,NA
5,2,1,4,120,3,3,0,NA,NA,2,2,1,10,610,0.78294,NA
5,2,1,5,121,2,2,0,NA,NA,2,2,0,0,610,0.24996,NA
5,2,1,5,122,4,4,0,NA,NA,2,2,0,0,610,0.28318,NA
5,2,1,5,123,3,3,0,NA,NA,1,1,0,0,610,1.5995,NA
5,2,1,5,124,2,2,0,NA,NA,2,2,1,10,620,4.4936,NA
5,2,1,5,125,1,1,0,NA,NA,2,2,1,10,630,0.76642,NA
5,2,1,5,126,4,4,0,NA,NA,2,2,0,0,630,0.19243,NA
5,2,1,5,127,1,1,0,NA,NA,2,2,1,10,640,0.0001915,NA
5,2,1,5,128,4,4,0,NA,NA,2,2,0,0,640,3.4944,NA
5,2,1,5,129,3,3,0,NA,NA,2,2,1,10,650,0.6743,NA
5,2,1,5,130,3,3,0,NA,NA,2,2,1,10,660,7.1662,NA
5,2,1,5,131,1,1,0,NA,NA,2,2,1,10,670,0.44597,NA
5,2,1,5,132,4,4,0,NA,NA,2,2,0,0,670,0.33833,NA
5,2,1,5,133,2,2,0,NA,NA,2,2,1,10,680,0.26643,NA
5,2,1,5,134,2,2,0,NA,NA,2,2,1,10,690,0.70062,NA
5,2,1,5,135,1,1,0,NA,NA,2,2,1,10,700,1.1997,NA
5,2,1,5,136,3,3,0,NA,NA,2,2,0,0,700,5.1675,NA
5,2,1,5,137,1,1,0,NA,NA,2,2,1,10,710,3.3172,NA
5,2,1,5,138,3,3,0,NA,NA,2,2,0,0,710,0.85886,NA
5,2,1,5,139,1,1,0,NA,NA,2,2,1,10,720,0.21656,NA
5,2,1,5,140,1,1,0,NA,NA,2,2,1,10,730,1.1341,NA
5,2,1,5,141,2,2,0,NA,NA,2,2,0,0,730,0.34946,NA
5,2,1,5,142,4,4,0,NA,NA,2,2,1,10,740,0.63948,NA
5,2,1,5,143,1,1,0,NA,NA,2,2,1,10,750,0.16511,NA
5,2,1,5,144,3,3,0,NA,NA,2,2,0,0,750,2.5817,NA
5,2,1,5,145,3,3,0,NA,NA,2,2,0,0,750,0.27608,NA
5,2,1,5,146,3,3,0,NA,NA,2,2,1,10,760,5.2246,NA
5,2,1,5,147,1,1,0,NA,NA,2,2,0,0,760,3.934,NA
5,2,1,5,148,3,3,0,NA,NA,2,2,1,10,770,0.41629,NA
5,2,1,5,149,3,3,0,NA,NA,2,2,1,10,780,0.25315,NA
5,2,1,5,150,1,1,0,NA,NA,2,2,1,10,790,1.6831,NA
5,2,1,6,151,4,4,0,NA,NA,2,2,0,0,790,3.9163,NA
5,2,1,6,152,1,1,0,NA,NA,2,2,0,0,790,1.7832,NA
5,2,1,6,153,3,3,0,NA,NA,2,2,1,10,800,0.63377,NA
5,2,1,6,154,2,2,0,NA,NA,2,2,0,0,800,0.60024,NA
5,2,1,6,155,3,3,0,NA,NA,2,2,1,10,810,3.8343,NA
5,2,1,6,156,4,4,0,NA,NA,1,1,0,0,810,0.25553,NA
5,2,1,6,157,2,2,0,NA,NA,2,2,0,0,810,1.9328,NA
5,2,1,6,158,2,2,0,NA,NA,2,2,1,10,820,0.61675,NA
5,2,1,6,159,2,2,0,NA,NA,2,2,0,0,820,0.9164,NA
5,2,1,6,160,1,1,0,NA,NA,2,2,1,10,830,0.73385,NA
5,2,1,6,161,3,3,0,NA,NA,2,2,1,10,840,0.18325,NA
5,2,1,6,162,3,3,0,NA,NA,2,2,1,10,850,0.86728,NA
5,2,1,6,163,4,4,0,NA,NA,2,2,0,0,850,3.15,NA
5,2,1,6,164,3,3,0,NA,NA,2,2,1,10,860,5.8109,NA
5,2,1,6,165,3,3,0,NA,NA,2,2,1,10,870,1.584,NA
5,2,1,6,166,1,1,0,NA,NA,2,2,1,10,880,1.2504,NA
5,2,1,6,167,2,2,0,NA,NA,2,2,0,0,880,0.34961,NA
5,2,1,6,168,3,3,0,NA,NA,2,2,1,10,890,1.5508,NA
5,2,1,6,169,4,4,0,NA,NA,2,2,0,0,890,1.8716,NA
5,2,1,6,170,3,3,0,NA,NA,2,2,1,10,900,0.042929,NA
5,2,1,6,171,1,1,0,NA,NA,1,1,0,0,900,0.29618,NA
5,2,1,6,172,3,3,0,NA,NA,2,2,1,10,910,0.18676,NA
5,2,1,6,173,1,1,0,NA,NA,1,1,0,0,910,0.93843,NA
5,2,1,6,174,1,1,0,NA,NA,2,2,1,10,920,0.000156,NA
5,2,1,6,175,3,3,0,NA,NA,2,2,1,10,930,0.29075,NA
5,2,1,6,176,4,4,0,NA,NA,2,2,1,10,940,0.2383,NA
5,2,1,6,177,1,1,0,NA,NA,2,2,0,0,940,0.083402,NA
5,2,1,6,178,1,1,0,NA,NA,2,2,0,0,940,0.19048,NA
5,2,1,6,179,1,1,0,NA,NA,2,2,1,10,950,0.23797,NA
5,2,1,6,180,1,1,0,NA,NA,2,2,0,0,950,1.4587,NA
5,2,1,7,181,1,1,0,NA,NA,1,1,0,0,950,0.82352,NA
5,2,1,7,182,1,1,0,NA,NA,2,2,1,10,960,4.2927,NA
5,2,1,7,183,3,3,0,NA,NA,2,2,0,0,960,0.15,NA
5,2,1,7,184,3,3,0,NA,NA,2,2,1,10,970,0.0086116,NA
5,2,1,7,185,2,2,0,NA,NA,2,2,0,0,970,0.19991,NA
5,2,1,7,186,1,1,0,NA,NA,2,2,1,10,980,0.0001842,NA
5,2,1,7,187,1,1,0,NA,NA,2,2,0,0,980,0.28306,NA
5,2,1,7,188,2,2,0,NA,NA,1,1,0,0,980,0.36054,NA
5,2,1,7,189,4,4,0,NA,NA,1,1,0,0,980,0.18338,NA
5,2,1,7,190,1,1,0,NA,NA,2,2,1,10,990,0.64073,NA
5,2,1,7,191,3,3,0,NA,NA,2,2,0,0,990,0.013868,NA
5,2,1,7,192,1,1,0,NA,NA,2,2,0,0,990,0.011719,NA
5,2,1,7,193,4,4,0,NA,NA,2,2,0,0,990,0.050162,NA
5,2,1,7,194,4,4,0,NA,NA,2,2,0,0,990,0.083571,NA
5,2,1,7,195,2,2,0,NA,NA,2,2,1,10,1000,0.14993,NA
5,2,1,7,196,3,3,0,NA,NA,2,2,1,10,1010,0.23323,NA
5,2,1,7,197,3,3,0,NA,NA,2,2,1,10,1020,0.18324,NA
5,2,1,7,198,3,3,0,NA,NA,2,2,1,10,1030,0.21552,NA
5,2,1,7,199,1,1,0,NA,NA,2,2,1,10,1040,0.16674,NA
5,2,1,7,200,1,1,0,NA,NA,2,2,1,10,1050,0.21331,NA
5,2,1,7,201,3,3,0,NA,NA,2,2,1,10,1060,0.35051,NA
5,2,1,7,202,3,3,0,NA,NA,2,2,1,10,1070,0.21639,NA
5,2,1,7,203,3,3,0,NA,NA,2,2,1,10,1080,0.21762,NA
5,2,1,7,204,2,2,0,NA,NA,2,2,0,0,1080,0.28805,NA
5,2,1,7,205,1,1,0,NA,NA,1,1,0,0,1080,0.0033624,NA
5,2,1,7,206,4,4,0,NA,NA,1,1,0,0,1080,0.30613,NA
5,2,1,7,207,3,3,0,NA,NA,1,1,0,0,1080,0.61698,NA
5,2,1,7,208,2,2,0,NA,NA,2,2,1,10,1090,0.22582,NA
5,2,1,7,209,4,4,0,NA,NA,2,2,0,0,1090,0.28292,NA
5,2,1,7,210,1,1,0,NA,NA,2,2,1,10,1100,0.044027,NA
5,2,2,1,1,1,1,2,NA,NA,1,1,1,10,1110,2.6292,NA
5,2,2,1,2,2,4,3,NA,NA,4,4,0,0,1110,2.0474,NA
5,2,2,1,3,2,3,4,NA,NA,3,3,0,0,1110,0.78509,NA
5,2,2,1,4,4,1,4,NA,NA,4,4,0,0,1110,1.9972,NA
5,2,2,1,5,6,2,4,NA,NA,2,2,0,0,1110,1.1039,NA
5,2,2,1,6,5,3,2,NA,NA,3,3,1,10,1120,0.41501,NA
5,2,2,1,7,1,2,1,NA,NA,1,1,0,0,1120,0.5931,NA
5,2,2,1,8,3,1,3,NA,NA,1,1,0,0,1120,0.2671,NA
5,2,2,1,9,5,2,3,NA,NA,3,3,0,0,1120,0.78971,NA
5,2,2,1,10,4,4,1,NA,NA,4,4,1,10,1130,0.73044,NA
5,2,2,1,11,3,3,1,NA,NA,1,1,1,10,1140,1.0166,NA
5,2,2,1,12,6,4,2,NA,NA,4,4,0,0,1140,0.88252,NA
5,2,2,2,13,5,3,2,NA,NA,3,3,1,10,1150,0.64164,NA
5,2,2,2,14,1,1,2,NA,NA,1,1,0,0,1150,0.79605,NA
5,2,2,2,15,6,4,2,NA,NA,4,4,0,0,1150,0.46418,NA
5,2,2,2,16,4,4,1,NA,NA,1,1,0,0,1150,0.88901,NA
5,2,2,2,17,4,1,4,NA,NA,4,4,0,0,1150,0.43335,NA
5,2,2,2,18,1,2,1,NA,NA,2,2,0,0,1150,1.1148,NA
5,2,2,2,19,6,2,4,NA,NA,4,4,0,0,1150,0.93741,NA
5,2,2,2,20,2,3,4,NA,NA,3,3,1,10,1160,0.58374,NA
5,2,2,2,21,3,1,3,NA,NA,3,3,1,10,1170,0.16707,NA
5,2,2,2,22,3,3,1,NA,NA,3,3,1,10,1180,0.21679,NA
5,2,2,2,23,5,2,3,NA,NA,3,3,1,10,1190,0.24953,NA
5,2,2,2,24,2,4,3,NA,NA,4,4,0,0,1190,0.85166,NA
5,2,2,3,25,2,3,4,NA,NA,4,4,0,0,1190,1.3243,NA
5,2,2,3,26,3,1,3,NA,NA,1,1,1,10,1200,0.38795,NA
5,2,2,3,27,1,1,2,NA,NA,2,2,0,0,1200,1.3265,NA
5,2,2,3,28,2,4,3,NA,NA,4,4,1,10,1210,6.8291,NA
5,2,2,3,29,4,4,1,NA,NA,4,4,1,10,1220,0.52021,NA
5,2,2,3,30,1,2,1,NA,NA,2,2,0,0,1220,1.5505,NA
5,2,2,3,31,5,2,3,NA,NA,2,2,0,0,1220,1.1245,NA
5,2,2,3,32,4,1,4,NA,NA,1,1,1,10,1230,1.2671,NA
5,2,2,3,33,3,3,1,NA,NA,3,3,1,10,1240,4.9078,NA
5,2,2,3,34,5,3,2,NA,NA,3,3,1,10,1250,0.37853,NA
5,2,2,3,35,6,4,2,NA,NA,2,2,1,10,1260,1.6395,NA
5,2,2,3,36,6,2,4,NA,NA,4,4,0,0,1260,0.44194,NA
5,2,2,4,37,2,3,4,NA,NA,3,3,1,10,1270,0.3636,NA
5,2,2,4,38,4,1,4,NA,NA,1,1,1,10,1280,1.816,NA
5,2,2,4,39,5,2,3,NA,NA,3,3,1,10,1290,4.9464,NA
5,2,2,4,40,6,2,4,NA,NA,2,2,0,0,1290,5.5444,NA
5,2,2,4,41,1,1,2,NA,NA,1,1,1,10,1300,0.91905,NA
5,2,2,4,42,4,4,1,NA,NA,1,1,1,10,1310,0.41691,NA
5,2,2,4,43,3,3,1,NA,NA,3,3,1,10,1320,1.9839,NA
5,2,2,4,44,6,4,2,NA,NA,4,4,1,10,1330,0.81917,NA
5,2,2,4,45,2,4,3,NA,NA,4,4,0,0,1330,2.0162,NA
5,2,2,4,46,3,1,3,NA,NA,1,1,0,0,1330,0.96104,NA
5,2,2,4,47,1,2,1,NA,NA,1,1,1,10,1340,0.44944,NA
5,2,2,4,48,5,3,2,NA,NA,3,3,1,10,1350,0.93588,NA
5,2,2,5,49,6,4,2,NA,NA,4,4,0,0,1350,0.7492,NA
5,2,2,5,50,1,2,1,NA,NA,1,1,0,0,1350,0.60292,NA
5,2,2,5,51,1,1,2,NA,NA,1,1,1,10,1360,1.7503,NA
5,2,2,5,52,5,2,3,NA,NA,2,2,0,0,1360,0.84308,NA
5,2,2,5,53,3,1,3,NA,NA,1,1,1,10,1370,1.0053,NA
5,2,2,5,54,2,4,3,NA,NA,3,3,1,10,1380,6.6171,NA
5,2,2,5,55,4,4,1,NA,NA,4,4,0,0,1380,0.49098,NA
5,2,2,5,56,2,3,4,NA,NA,4,4,0,0,1380,0.29997,NA
5,2,2,5,57,6,2,4,NA,NA,4,4,0,0,1380,0.66612,NA
5,2,2,5,58,4,1,4,NA,NA,1,1,0,0,1380,8.0434,NA
5,2,2,5,59,5,3,2,NA,NA,3,3,1,10,1390,0.56494,NA
5,2,2,5,60,3,3,1,NA,NA,3,3,1,10,1400,1.1664,NA
5,2,2,6,61,1,2,1,NA,NA,2,2,0,0,1400,1.9829,NA
5,2,2,6,62,6,4,2,NA,NA,2,2,0,0,1400,0.73844,NA
5,2,2,6,63,4,4,1,NA,NA,1,1,1,10,1410,0.69644,NA
5,2,2,6,64,1,1,2,NA,NA,1,1,1,10,1420,1.9838,NA
5,2,2,6,65,4,1,4,NA,NA,1,1,1,10,1430,0.45005,NA
5,2,2,6,66,6,2,4,NA,NA,4,4,0,0,1430,0.45276,NA
5,2,2,6,67,5,2,3,NA,NA,2,2,0,0,1430,0.4862,NA
5,2,2,6,68,3,3,1,NA,NA,3,3,0,0,1430,0.55836,NA
5,2,2,6,69,5,3,2,NA,NA,2,2,1,10,1440,2.0035,NA
5,2,2,6,70,2,3,4,NA,NA,4,4,0,0,1440,2.8633,NA
5,2,2,6,71,2,4,3,NA,NA,3,3,1,10,1450,0.96086,NA
5,2,2,6,72,3,1,3,NA,NA,1,1,0,0,1450,1.6384,NA
5,2,2,7,73,3,3,1,NA,NA,3,3,1,10,1460,2.2403,NA
5,2,2,7,74,3,1,3,NA,NA,3,3,0,0,1460,8.2734,NA
5,2,2,7,75,4,1,4,NA,NA,4,4,0,0,1460,3.8017,NA
5,2,2,7,76,6,4,2,NA,NA,4,4,0,0,1460,0.38319,NA
5,2,2,7,77,4,4,1,NA,NA,1,1,1,10,1470,0.25672,NA
5,2,2,7,78,5,3,2,NA,NA,3,3,1,10,1480,0.45881,NA
5,2,2,7,79,2,3,4,NA,NA,3,3,0,0,1480,1.7395,NA
5,2,2,7,80,1,2,1,NA,NA,1,1,1,10,1490,0.97023,NA
5,2,2,7,81,2,4,3,NA,NA,4,4,0,0,1490,1.6861,NA
5,2,2,7,82,1,1,2,NA,NA,2,2,0,0,1490,4.1904,NA
5,2,2,7,83,5,2,3,NA,NA,3,3,1,10,1500,3.9785,NA
5,2,2,7,84,6,2,4,NA,NA,4,4,0,0,1500,1.815,NA
5,2,2,8,85,6,4,2,NA,NA,4,4,0,0,1500,0.7454,NA
5,2,2,8,86,2,3,4,NA,NA,3,3,1,10,1510,0.44818,NA
5,2,2,8,87,2,4,3,NA,NA,3,3,1,10,1520,0.32957,NA
5,2,2,8,88,5,3,2,NA,NA,3,3,1,10,1530,0.64973,NA
5,2,2,8,89,1,1,2,NA,NA,1,1,1,10,1540,0.84082,NA
5,2,2,8,90,5,2,3,NA,NA,3,3,1,10,1550,4.547,NA
5,2,2,8,91,3,3,1,NA,NA,3,3,0,0,1550,0.85013,NA
5,2,2,8,92,3,1,3,NA,NA,3,3,1,10,1560,5.917,NA
5,2,2,8,93,4,4,1,NA,NA,1,1,1,10,1570,0.52892,NA
5,2,2,8,94,6,2,4,NA,NA,4,4,0,0,1570,2.4872,NA
5,2,2,8,95,1,2,1,NA,NA,1,1,1,10,1580,1.9428,NA
5,2,2,8,96,4,1,4,NA,NA,1,1,1,10,1590,1.1247,NA
5,2,2,9,97,2,4,3,NA,NA,3,3,1,10,1600,2.0518,NA
5,2,2,9,98,5,2,3,NA,NA,3,3,1,10,1610,0.33361,NA
5,2,2,9,99,1,2,1,NA,NA,1,1,0,0,1610,1.2599,NA
5,2,2,9,100,6,2,4,NA,NA,4,4,0,0,1610,1.0607,NA
5,2,2,9,101,5,3,2,NA,NA,3,3,0,0,1610,1.1741,NA
5,2,2,9,102,1,1,2,NA,NA,1,1,1,10,1620,1.234,NA
5,2,2,9,103,2,3,4,NA,NA,3,3,1,10,1630,1.0442,NA
5,2,2,9,104,4,4,1,NA,NA,1,1,0,0,1630,6.2942,NA
5,2,2,9,105,3,3,1,NA,NA,1,1,0,0,1630,14.902,NA
5,2,2,9,106,4,1,4,NA,NA,1,1,1,10,1640,6.3328,NA
5,2,2,9,107,3,1,3,NA,NA,3,3,1,10,1650,0.29873,NA
5,2,2,9,108,6,4,2,NA,NA,4,4,1,10,1660,0.47402,NA
5,2,2,10,109,3,1,3,NA,NA,1,1,1,10,1670,1.1233,NA
5,2,2,10,110,6,4,2,NA,NA,4,4,0,0,1670,0.76139,NA
5,2,2,10,111,6,2,4,NA,NA,4,4,0,0,1670,1.0638,NA
5,2,2,10,112,4,4,1,NA,NA,1,1,1,10,1680,1.6868,NA
5,2,2,10,113,2,4,3,NA,NA,3,3,1,10,1690,8.5106,NA
5,2,2,10,114,2,3,4,NA,NA,4,4,0,0,1690,1.134,NA
5,2,2,10,115,5,3,2,NA,NA,3,3,1,10,1700,0.15669,NA
5,2,2,10,116,5,2,3,NA,NA,2,2,0,0,1700,3.2577,NA
5,2,2,10,117,4,1,4,NA,NA,4,4,1,10,1710,0.81066,NA
5,2,2,10,118,1,2,1,NA,NA,1,1,0,0,1710,1.2065,NA
5,2,2,10,119,1,1,2,NA,NA,1,1,0,0,1710,0.28351,NA
5,2,2,10,120,3,3,1,NA,NA,1,1,1,10,1720,1.8975,NA
5,2,3,1,1,7,3,4,2,1,1,1,0,0,1720,0.55657,NA
5,2,3,1,2,7,3,2,1,4,3,3,1,10,1730,0.25005,NA
5,2,3,1,3,7,1,3,4,2,2,2,0,0,1730,0.15464,NA
5,2,3,1,4,7,4,1,3,2,1,1,1,10,1740,0.0002005,NA
5,2,3,1,5,7,3,2,4,1,4,4,0,0,1740,0.25174,NA
5,2,3,1,6,7,3,1,2,4,3,3,1,10,1750,0.74105,NA
5,2,3,1,7,7,1,3,2,4,1,1,0,0,1750,0.16292,NA
5,2,3,1,8,7,4,2,1,3,1,1,0,0,1750,0.000192,NA
5,2,3,1,9,7,1,4,2,3,1,1,0,0,1750,0.099776,NA
5,2,3,1,10,7,4,2,1,3,1,1,0,0,1750,0.2828,NA
5,2,3,1,11,7,4,3,2,1,3,3,0,0,1750,0.0002619,NA
5,2,3,1,12,7,1,4,2,3,4,4,1,10,1760,0.59039,NA
5,2,3,1,13,7,1,3,2,4,1,1,1,10,1770,0.91369,NA
5,2,3,1,14,7,2,3,1,4,2,2,1,10,1780,0.0013107,NA
5,2,3,1,15,7,2,3,4,1,3,3,1,10,1790,0.3729,NA
5,2,3,1,16,7,4,1,2,3,4,4,0,0,1790,0.38519,NA
5,2,3,1,17,7,4,3,1,2,1,1,0,0,1790,0.90904,NA
5,2,3,1,18,7,2,3,1,4,3,3,1,10,1800,1.0843,NA
5,2,3,1,19,7,3,1,4,2,4,4,0,0,1800,1.4683,NA
5,2,3,1,20,7,4,2,1,3,4,4,0,0,1800,0.95655,NA
5,2,4,1,1,1,1,NA,NA,NA,NA,NA,NA,NA,NA,NA,77.1667
5,2,4,1,2,2,2,NA,NA,NA,NA,NA,NA,NA,NA,NA,39.6667
5,2,4,1,3,3,3,NA,NA,NA,NA,NA,NA,NA,NA,NA,59.3333
5,2,4,1,4,4,4,NA,NA,NA,NA,NA,NA,NA,NA,NA,51
6,3,1,1,1,2,2,0,NA,NA,2,2,0,0,0,3.2308,NA
6,3,1,1,2,1,1,0,NA,NA,2,2,0,0,0,1.8191,NA
6,3,1,1,3,3,3,0,NA,NA,2,2,0,0,0,2.7966,NA
6,3,1,1,4,3,3,0,NA,NA,2,2,1,10,10,3.1982,NA
6,3,1,1,5,4,4,0,NA,NA,2,2,0,0,10,2.6646,NA
6,3,1,1,6,2,2,0,NA,NA,2,2,1,10,20,0.95046,NA
6,3,1,1,7,4,4,0,NA,NA,2,2,0,0,20,1.3077,NA
6,3,1,1,8,1,1,0,NA,NA,2,2,1,10,30,0.69848,NA
6,3,1,1,9,2,2,0,NA,NA,2,2,0,0,30,1.2172,NA
6,3,1,1,10,2,2,0,NA,NA,2,2,1,10,40,3.1397,NA
6,3,1,1,11,1,1,0,NA,NA,2,2,0,0,40,2.0721,NA
6,3,1,1,12,4,4,0,NA,NA,2,2,0,0,40,1.9113,NA
6,3,1,1,13,1,1,0,NA,NA,2,2,1,10,50,0.7023,NA
6,3,1,1,14,1,1,0,NA,NA,2,2,1,10,60,0.97355,NA
6,3,1,1,15,1,1,0,NA,NA,2,2,0,0,60,0.994,NA
6,3,1,1,16,2,2,0,NA,NA,2,2,0,0,60,2.1899,NA
6,3,1,1,17,2,2,0,NA,NA,2,2,0,0,60,1.2961,NA
6,3,1,1,18,1,1,0,NA,NA,2,2,1,10,70,0.67939,NA
6,3,1,1,19,2,2,0,NA,NA,2,2,0,0,70,0.63363,NA
6,3,1,1,20,1,1,0,NA,NA,2,2,1,10,80,0.56755,NA
6,3,1,1,21,1,1,0,NA,NA,2,2,0,0,80,0.4166,NA
6,3,1,1,22,3,3,0,NA,NA,2,2,1,10,90,0.51755,NA
6,3,1,1,23,2,2,0,NA,NA,1,1,0,0,90,0.66347,NA
6,3,1,1,24,1,1,0,NA,NA,2,2,1,10,100,0.7121,NA
6,3,1,1,25,3,3,0,NA,NA,2,2,1,10,110,0.55944,NA
6,3,1,1,26,4,4,0,NA,NA,2,2,1,10,120,1.7486,NA
6,3,1,1,27,1,1,0,NA,NA,2,2,1,10,130,0.58539,NA
6,3,1,1,28,3,3,0,NA,NA,2,2,0,0,130,0.50935,NA
6,3,1,1,29,3,3,0,NA,NA,2,2,0,0,130,0.41982,NA
6,3,1,1,30,1,1,0,NA,NA,2,2,1,10,140,0.27979,NA
6,3,1,2,31,1,1,0,NA,NA,2,2,0,0,140,0.36776,NA
6,3,1,2,32,2,2,0,NA,NA,2,2,1,10,150,0.59758,NA
6,3,1,2,33,4,4,0,NA,NA,2,2,0,0,150,0.5528,NA
6,3,1,2,34,4,4,0,NA,NA,2,2,0,0,150,0.23836,NA
6,3,1,2,35,1,1,0,NA,NA,2,2,1,10,160,0.2331,NA
6,3,1,2,36,2,2,0,NA,NA,2,2,0,0,160,1.6989,NA
6,3,1,2,37,3,3,0,NA,NA,2,2,0,0,160,0.2977,NA
6,3,1,2,38,1,1,0,NA,NA,2,2,1,10,170,0.25709,NA
6,3,1,2,39,1,1,0,NA,NA,2,2,1,10,180,0.35507,NA
6,3,1,2,40,4,4,0,NA,NA,2,2,0,0,180,0.79266,NA
6,3,1,2,41,2,2,0,NA,NA,2,2,0,0,180,0.8129,NA
6,3,1,2,42,3,3,0,NA,NA,2,2,1,10,190,0.30329,NA
6,3,1,2,43,3,3,0,NA,NA,2,2,0,0,190,0.29674,NA
6,3,1,2,44,2,2,0,NA,NA,2,2,0,0,190,1.7848,NA
6,3,1,2,45,1,1,0,NA,NA,2,2,1,10,200,0.36347,NA
6,3,1,2,46,1,1,0,NA,NA,2,2,1,10,210,0.32803,NA
6,3,1,2,47,4,4,0,NA,NA,1,1,0,0,210,0.82228,NA
6,3,1,2,48,3,3,0,NA,NA,2,2,0,0,210,0.36066,NA
6,3,1,2,49,3,3,0,NA,NA,2,2,1,10,220,0.19834,NA
6,3,1,2,50,1,1,0,NA,NA,2,2,0,0,220,0.26543,NA
6,3,1,2,51,3,3,0,NA,NA,2,2,0,0,220,0.18789,NA
6,3,1,2,52,2,2,0,NA,NA,2,2,0,0,220,1.4725,NA
6,3,1,2,53,2,2,0,NA,NA,1,1,0,0,220,0.79988,NA
6,3,1,2,54,1,1,0,NA,NA,2,2,1,10,230,0.46771,NA
6,3,1,2,55,2,2,0,NA,NA,1,1,0,0,230,1.1484,NA
6,3,1,2,56,1,1,0,NA,NA,2,2,0,0,230,0.45062,NA
6,3,1,2,57,1,1,0,NA,NA,2,2,0,0,230,1.8188,NA
6,3,1,2,58,1,1,0,NA,NA,2,2,0,0,230,0.21973,NA
6,3,1,2,59,2,2,0,NA,NA,2,2,0,0,230,0.95942,NA
6,3,1,2,60,1,1,0,NA,NA,2,2,1,10,240,0.23609,NA
6,3,1,3,61,1,1,0,NA,NA,2,2,0,0,240,0.44683,NA
6,3,1,3,62,1,1,0,NA,NA,2,2,1,10,250,0.42486,NA
6,3,1,3,63,1,1,0,NA,NA,2,2,0,0,250,0.22034,NA
6,3,1,3,64,1,1,0,NA,NA,2,2,0,0,250,0.29525,NA
6,3,1,3,65,3,3,0,NA,NA,2,2,0,0,250,0.25474,NA
6,3,1,3,66,3,3,0,NA,NA,2,2,1,10,260,0.21581,NA
6,3,1,3,67,2,2,0,NA,NA,2,2,1,10,270,0.89973,NA
6,3,1,3,68,1,1,0,NA,NA,2,2,1,10,280,0.26694,NA
6,3,1,3,69,4,4,0,NA,NA,1,1,0,0,280,2.5161,NA
6,3,1,3,70,3,3,0,NA,NA,2,2,1,10,290,0.59394,NA
6,3,1,3,71,1,1,0,NA,NA,2,2,1,10,300,0.77336,NA
6,3,1,3,72,1,1,0,NA,NA,2,2,1,10,310,0.6987,NA
6,3,1,3,73,2,2,0,NA,NA,2,2,1,10,320,0.47404,NA
6,3,1,3,74,3,3,0,NA,NA,2,2,1,10,330,0.39427,NA
6,3,1,3,75,4,4,0,NA,NA,2,2,0,0,330,0.47876,NA
6,3,1,3,76,1,1,0,NA,NA,2,2,1,10,340,0.30289,NA
6,3,1,3,77,1,1,0,NA,NA,2,2,1,10,350,0.28522,NA
6,3,1,3,78,1,1,0,NA,NA,2,2,0,0,350,0.54982,NA
6,3,1,3,79,1,1,0,NA,NA,2,2,1,10,360,0.30837,NA
6,3,1,3,80,1,1,0,NA,NA,2,2,1,10,370,0.59542,NA
6,3,1,3,81,2,2,0,NA,NA,2,2,0,0,370,1.3114,NA
6,3,1,3,82,2,2,0,NA,NA,2,2,0,0,370,0.22979,NA
6,3,1,3,83,2,2,0,NA,NA,2,2,0,0,370,0.33639,NA
6,3,1,3,84,2,2,0,NA,NA,2,2,1,10,380,0.3587,NA
6,3,1,3,85,3,3,0,NA,NA,2,2,0,0,380,0.34057,NA
6,3,1,3,86,2,2,0,NA,NA,1,1,0,0,380,0.22686,NA
6,3,1,3,87,4,4,0,NA,NA,2,2,1,10,390,1.1101,NA
6,3,1,3,88,4,4,0,NA,NA,1,1,0,0,390,1.0457,NA
6,3,1,3,89,3,3,0,NA,NA,2,2,0,0,390,0.33363,NA
6,3,1,3,90,2,2,0,NA,NA,1,1,0,0,390,0.95641,NA
6,3,1,4,91,4,4,0,NA,NA,1,1,0,0,390,2.3142,NA
6,3,1,4,92,2,2,0,NA,NA,2,2,0,0,390,2.2468,NA
6,3,1,4,93,4,4,0,NA,NA,1,1,0,0,390,0.28638,NA
6,3,1,4,94,1,1,0,NA,NA,2,2,1,10,400,0.16677,NA
6,3,1,4,95,1,1,0,NA,NA,2,2,1,10,410,0.21228,NA
6,3,1,4,96,1,1,0,NA,NA,2,2,1,10,420,0.14386,NA
6,3,1,4,97,1,1,0,NA,NA,2,2,0,0,420,0.11805,NA
6,3,1,4,98,2,2,0,NA,NA,1,1,0,0,420,0.30939,NA
6,3,1,4,99,3,3,0,NA,NA,2,2,0,0,420,0.24588,NA
6,3,1,4,100,3,3,0,NA,NA,2,2,0,0,420,0.095401,NA
6,3,1,4,101,2,2,0,NA,NA,2,2,0,0,420,0.34361,NA
6,3,1,4,102,2,2,0,NA,NA,2,2,0,0,420,0.45415,NA
6,3,1,4,103,1,1,0,NA,NA,2,2,0,0,420,0.10367,NA
6,3,1,4,104,1,1,0,NA,NA,2,2,0,0,420,0.0006012,NA
6,3,1,4,105,2,2,0,NA,NA,1,1,0,0,420,0.24344,NA
6,3,1,4,106,2,2,0,NA,NA,1,1,0,0,420,0.23725,NA
6,3,1,4,107,3,3,0,NA,NA,2,2,0,0,420,0.14452,NA
6,3,1,4,108,3,3,0,NA,NA,2,2,0,0,420,0.053527,NA
6,3,1,4,109,1,1,0,NA,NA,2,2,1,10,430,0.0479,NA
6,3,1,4,110,1,1,0,NA,NA,2,2,1,10,440,0.042133,NA
6,3,1,4,111,2,2,0,NA,NA,2,2,1,10,450,0.22076,NA
6,3,1,4,112,1,1,0,NA,NA,2,2,1,10,460,0.14454,NA
6,3,1,4,113,1,1,0,NA,NA,2,2,0,0,460,0.014958,NA
6,3,1,4,114,1,1,0,NA,NA,2,2,1,10,470,0.33735,NA
6,3,1,4,115,1,1,0,NA,NA,1,1,0,0,470,0.15163,NA
6,3,1,4,116,3,3,0,NA,NA,2,2,1,10,480,0.15805,NA
6,3,1,4,117,4,4,0,NA,NA,1,1,0,0,480,0.70039,NA
6,3,1,4,118,4,4,0,NA,NA,2,2,0,0,480,0.21153,NA
6,3,1,4,119,3,3,0,NA,NA,2,2,1,10,490,0.1906,NA
6,3,1,4,120,2,2,0,NA,NA,2,2,1,10,500,0.67471,NA
6,3,1,5,121,2,2,0,NA,NA,1,1,0,0,500,0.17144,NA
6,3,1,5,122,3,3,0,NA,NA,2,2,1,10,510,0.11216,NA
6,3,1,5,123,2,2,0,NA,NA,2,2,0,0,510,0.23093,NA
6,3,1,5,124,2,2,0,NA,NA,1,1,0,0,510,0.067115,NA
6,3,1,5,125,2,2,0,NA,NA,1,1,0,0,510,0.16411,NA
6,3,1,5,126,4,4,0,NA,NA,1,1,0,0,510,0.58596,NA
6,3,1,5,127,1,1,0,NA,NA,2,2,1,10,520,0.14176,NA
6,3,1,5,128,1,1,0,NA,NA,2,2,1,10,530,0.020401,NA
6,3,1,5,129,1,1,0,NA,NA,2,2,1,10,540,0.024377,NA
6,3,1,5,130,2,2,0,NA,NA,1,1,0,0,540,0.090287,NA
6,3,1,5,131,3,3,0,NA,NA,2,2,0,0,540,0.0516,NA
6,3,1,5,132,1,1,0,NA,NA,2,2,0,0,540,0.0001606,NA
6,3,1,5,133,3,3,0,NA,NA,2,2,0,0,540,0.68086,NA
6,3,1,5,134,1,1,0,NA,NA,2,2,1,10,550,0.096569,NA
6,3,1,5,135,2,2,0,NA,NA,1,1,0,0,550,0.0001472,NA
6,3,1,5,136,1,1,0,NA,NA,2,2,1,10,560,0.22105,NA
6,3,1,5,137,1,1,0,NA,NA,2,2,1,10,570,0.047405,NA
6,3,1,5,138,3,3,0,NA,NA,2,2,1,10,580,0.11418,NA
6,3,1,5,139,2,2,0,NA,NA,2,2,0,0,580,0.24881,NA
6,3,1,5,140,1,1,0,NA,NA,2,2,0,0,580,0.0001903,NA
6,3,1,5,141,1,1,0,NA,NA,2,2,1,10,590,0.11086,NA
6,3,1,5,142,4,4,0,NA,NA,2,2,0,0,590,1.2868,NA
6,3,1,5,143,1,1,0,NA,NA,2,2,1,10,600,0.079075,NA
6,3,1,5,144,3,3,0,NA,NA,2,2,0,0,600,0.11625,NA
6,3,1,5,145,4,4,0,NA,NA,2,2,0,0,600,0.47576,NA
6,3,1,5,146,1,1,0,NA,NA,2,2,1,10,610,0.1651,NA
6,3,1,5,147,2,2,0,NA,NA,2,2,0,0,610,1.658,NA
6,3,1,5,148,1,1,0,NA,NA,2,2,0,0,610,0.23505,NA
6,3,1,5,149,3,3,0,NA,NA,2,2,1,10,620,0.07764,NA
6,3,1,5,150,4,4,0,NA,NA,1,1,0,0,620,0.88573,NA
6,3,1,6,151,2,2,0,NA,NA,2,2,0,0,620,1.4536,NA
6,3,1,6,152,2,2,0,NA,NA,1,1,0,0,620,0.73407,NA
6,3,1,6,153,4,4,0,NA,NA,2,2,0,0,620,1.0051,NA
6,3,1,6,154,3,3,0,NA,NA,2,2,1,10,630,0.15164,NA
6,3,1,6,155,1,1,0,NA,NA,2,2,1,10,640,0.053646,NA
6,3,1,6,156,4,4,0,NA,NA,2,2,0,0,640,0.41618,NA
6,3,1,6,157,4,4,0,NA,NA,1,1,0,0,640,0.59481,NA
6,3,1,6,158,4,4,0,NA,NA,1,1,0,0,640,0.19073,NA
6,3,1,6,159,3,3,0,NA,NA,2,2,0,0,640,0.19548,NA
6,3,1,6,160,3,3,0,NA,NA,2,2,1,10,650,0.10297,NA
6,3,1,6,161,1,1,0,NA,NA,2,2,0,0,650,0.4229,NA
6,3,1,6,162,2,2,0,NA,NA,2,2,0,0,650,0.36122,NA
6,3,1,6,163,1,1,0,NA,NA,2,2,1,10,660,0.063363,NA
6,3,1,6,164,1,1,0,NA,NA,1,1,0,0,660,0.24668,NA
6,3,1,6,165,2,2,0,NA,NA,2,2,0,0,660,0.055953,NA
6,3,1,6,166,3,3,0,NA,NA,2,2,0,0,660,0.16981,NA
6,3,1,6,167,1,1,0,NA,NA,2,2,0,0,660,0.095002,NA
6,3,1,6,168,3,3,0,NA,NA,2,2,0,0,660,0.071906,NA
6,3,1,6,169,2,2,0,NA,NA,2,2,1,10,670,0.30608,NA
6,3,1,6,170,1,1,0,NA,NA,2,2,1,10,680,0.0001891,NA
6,3,1,6,171,1,1,0,NA,NA,2,2,0,0,680,0.64529,NA
6,3,1,6,172,1,1,0,NA,NA,2,2,1,10,690,0.000171,NA
6,3,1,6,173,1,1,0,NA,NA,2,2,1,10,700,0.55432,NA
6,3,1,6,174,2,2,0,NA,NA,2,2,0,0,700,0.24018,NA
6,3,1,6,175,1,1,0,NA,NA,2,2,0,0,700,0.17052,NA
6,3,1,6,176,3,3,0,NA,NA,2,2,1,10,710,0.33581,NA
6,3,1,6,177,1,1,0,NA,NA,2,2,0,0,710,0.030675,NA
6,3,1,6,178,2,2,0,NA,NA,2,2,1,10,720,0.11315,NA
6,3,1,6,179,1,1,0,NA,NA,2,2,1,10,730,0.36016,NA
6,3,1,6,180,2,2,0,NA,NA,1,1,0,0,730,0.49373,NA
6,3,1,7,181,1,1,0,NA,NA,2,2,0,0,730,0.069932,NA
6,3,1,7,182,1,1,0,NA,NA,2,2,1,10,740,0.3844,NA
6,3,1,7,183,3,3,0,NA,NA,2,2,0,0,740,0.11592,NA
6,3,1,7,184,1,1,0,NA,NA,2,2,1,10,750,0.13944,NA
6,3,1,7,185,1,1,0,NA,NA,2,2,1,10,760,0.081496,NA
6,3,1,7,186,4,4,0,NA,NA,2,2,0,0,760,0.37831,NA
6,3,1,7,187,2,2,0,NA,NA,2,2,0,0,760,0.27886,NA
6,3,1,7,188,1,1,0,NA,NA,2,2,1,10,770,0.10312,NA
6,3,1,7,189,2,2,0,NA,NA,2,2,0,0,770,0.11028,NA
6,3,1,7,190,1,1,0,NA,NA,2,2,0,0,770,0.11861,NA
6,3,1,7,191,1,1,0,NA,NA,2,2,1,10,780,0.39843,NA
6,3,1,7,192,4,4,0,NA,NA,1,1,0,0,780,2.3458,NA
6,3,1,7,193,2,2,0,NA,NA,2,2,0,0,780,0.26151,NA
6,3,1,7,194,2,2,0,NA,NA,2,2,0,0,780,0.41486,NA
6,3,1,7,195,4,4,0,NA,NA,1,1,0,0,780,0.32994,NA
6,3,1,7,196,1,1,0,NA,NA,2,2,1,10,790,0.0013278,NA
6,3,1,7,197,1,1,0,NA,NA,2,2,1,10,800,0.43662,NA
6,3,1,7,198,1,1,0,NA,NA,2,2,1,10,810,0.18332,NA
6,3,1,7,199,1,1,0,NA,NA,2,2,1,10,820,0.32354,NA
6,3,1,7,200,3,3,0,NA,NA,2,2,1,10,830,0.2502,NA
6,3,1,7,201,2,2,0,NA,NA,1,1,0,0,830,0.34839,NA
6,3,1,7,202,3,3,0,NA,NA,2,2,1,10,840,0.21834,NA
6,3,1,7,203,2,2,0,NA,NA,1,1,0,0,840,0.21448,NA
6,3,1,7,204,2,2,0,NA,NA,1,1,0,0,840,0.68066,NA
6,3,1,7,205,3,3,0,NA,NA,2,2,1,10,850,0.26508,NA
6,3,1,7,206,2,2,0,NA,NA,2,2,0,0,850,0.36185,NA
6,3,1,7,207,1,1,0,NA,NA,2,2,0,0,850,0.21569,NA
6,3,1,7,208,4,4,0,NA,NA,1,1,0,0,850,0.2743,NA
6,3,1,7,209,3,3,0,NA,NA,2,2,0,0,850,0.14025,NA
6,3,1,7,210,3,3,0,NA,NA,2,2,1,10,860,0.06651,NA
6,3,2,1,1,5,3,2,NA,NA,3,3,1,10,870,3.209,NA
6,3,2,1,2,1,1,2,NA,NA,1,1,0,0,870,1.6144,NA
6,3,2,1,3,2,4,3,NA,NA,3,3,0,0,870,0.75811,NA
6,3,2,1,4,3,3,1,NA,NA,3,3,1,10,880,1.0685,NA
6,3,2,1,5,1,2,1,NA,NA,1,1,1,10,890,0.68183,NA
6,3,2,1,6,4,1,4,NA,NA,1,1,1,10,900,0.60025,NA
6,3,2,1,7,3,1,3,NA,NA,3,3,0,0,900,0.84768,NA
6,3,2,1,8,4,4,1,NA,NA,1,1,1,10,910,0.41704,NA
6,3,2,1,9,6,4,2,NA,NA,2,2,0,0,910,1.6295,NA
6,3,2,1,10,6,2,4,NA,NA,2,2,0,0,910,1.2996,NA
6,3,2,1,11,5,2,3,NA,NA,3,3,1,10,920,0.63959,NA
6,3,2,1,12,2,3,4,NA,NA,3,3,1,10,930,0.36641,NA
6,3,2,2,13,2,4,3,NA,NA,3,3,0,0,930,0.39986,NA
6,3,2,2,14,6,4,2,NA,NA,2,2,0,0,930,0.72944,NA
6,3,2,2,15,2,3,4,NA,NA,3,3,1,10,940,0.52536,NA
6,3,2,2,16,6,2,4,NA,NA,2,2,0,0,940,0.70554,NA
6,3,2,2,17,4,4,1,NA,NA,1,1,1,10,950,1.0057,NA
6,3,2,2,18,5,3,2,NA,NA,3,3,1,10,960,0.5583,NA
6,3,2,2,19,4,1,4,NA,NA,1,1,0,0,960,0.51213,NA
6,3,2,2,20,3,3,1,NA,NA,3,3,1,10,970,1.0692,NA
6,3,2,2,21,1,1,2,NA,NA,1,1,0,0,970,0.45073,NA
6,3,2,2,22,3,1,3,NA,NA,3,3,1,10,980,0.63327,NA
6,3,2,2,23,1,2,1,NA,NA,1,1,1,10,990,0.44125,NA
6,3,2,2,24,5,2,3,NA,NA,3,3,1,10,1000,0.47208,NA
6,3,2,3,25,6,2,4,NA,NA,2,2,0,0,1000,0.4709,NA
6,3,2,3,26,6,4,2,NA,NA,2,2,0,0,1000,0.86108,NA
6,3,2,3,27,3,1,3,NA,NA,3,3,1,10,1010,0.80343,NA
6,3,2,3,28,5,2,3,NA,NA,3,3,1,10,1020,0.45163,NA
6,3,2,3,29,2,3,4,NA,NA,3,3,1,10,1030,0.65881,NA
6,3,2,3,30,1,2,1,NA,NA,1,1,1,10,1040,0.28936,NA
6,3,2,3,31,3,3,1,NA,NA,3,3,1,10,1050,0.45388,NA
6,3,2,3,32,4,4,1,NA,NA,1,1,0,0,1050,0.45264,NA
6,3,2,3,33,2,4,3,NA,NA,3,3,0,0,1050,0.55594,NA
6,3,2,3,34,5,3,2,NA,NA,3,3,1,10,1060,0.46223,NA
6,3,2,3,35,1,1,2,NA,NA,1,1,1,10,1070,0.74121,NA
6,3,2,3,36,4,1,4,NA,NA,1,1,0,0,1070,0.43329,NA
6,3,2,4,37,3,1,3,NA,NA,3,3,0,0,1070,0.51988,NA
6,3,2,4,38,5,2,3,NA,NA,3,3,0,0,1070,0.46009,NA
6,3,2,4,39,5,3,2,NA,NA,3,3,1,10,1080,0.49073,NA
6,3,2,4,40,4,4,1,NA,NA,1,1,1,10,1090,0.47199,NA
6,3,2,4,41,2,3,4,NA,NA,3,3,1,10,1100,0.39784,NA
6,3,2,4,42,2,4,3,NA,NA,3,3,1,10,1110,0.43921,NA
6,3,2,4,43,6,2,4,NA,NA,2,2,0,0,1110,1.0953,NA
6,3,2,4,44,3,3,1,NA,NA,3,3,1,10,1120,0.57954,NA
6,3,2,4,45,1,2,1,NA,NA,1,1,1,10,1130,0.43633,NA
6,3,2,4,46,4,1,4,NA,NA,1,1,1,10,1140,0.44459,NA
6,3,2,4,47,6,4,2,NA,NA,2,2,0,0,1140,0.67542,NA
6,3,2,4,48,1,1,2,NA,NA,1,1,1,10,1150,0.48164,NA
6,3,2,5,49,4,4,1,NA,NA,1,1,1,10,1160,0.46724,NA
6,3,2,5,50,2,3,4,NA,NA,3,3,1,10,1170,0.68536,NA
6,3,2,5,51,2,4,3,NA,NA,3,3,1,10,1180,0.43421,NA
6,3,2,5,52,1,1,2,NA,NA,1,1,0,0,1180,0.48178,NA
6,3,2,5,53,1,2,1,NA,NA,1,1,1,10,1190,0.40776,NA
6,3,2,5,54,5,2,3,NA,NA,3,3,1,10,1200,0.41663,NA
6,3,2,5,55,3,1,3,NA,NA,3,3,1,10,1210,0.46539,NA
6,3,2,5,56,3,3,1,NA,NA,3,3,1,10,1220,1.0713,NA
6,3,2,5,57,6,4,2,NA,NA,2,2,1,10,1230,0.5564,NA
6,3,2,5,58,6,2,4,NA,NA,2,2,0,0,1230,0.59974,NA
6,3,2,5,59,4,1,4,NA,NA,1,1,1,10,1240,0.37545,NA
6,3,2,5,60,5,3,2,NA,NA,3,3,0,0,1240,0.44174,NA
6,3,2,6,61,5,3,2,NA,NA,3,3,0,0,1240,0.4568,NA
6,3,2,6,62,2,3,4,NA,NA,3,3,0,0,1240,0.38364,NA
6,3,2,6,63,1,1,2,NA,NA,1,1,0,0,1240,0.36027,NA
6,3,2,6,64,6,2,4,NA,NA,2,2,1,10,1250,0.45172,NA
6,3,2,6,65,4,1,4,NA,NA,1,1,1,10,1260,0.37817,NA
6,3,2,6,66,1,2,1,NA,NA,1,1,1,10,1270,0.37999,NA
6,3,2,6,67,3,1,3,NA,NA,3,3,0,0,1270,0.59814,NA
6,3,2,6,68,6,4,2,NA,NA,2,2,0,0,1270,0.55844,NA
6,3,2,6,69,4,4,1,NA,NA,1,1,1,10,1280,0.61666,NA
6,3,2,6,70,2,4,3,NA,NA,3,3,1,10,1290,0.5207,NA
6,3,2,6,71,5,2,3,NA,NA,3,3,1,10,1300,0.4768,NA
6,3,2,6,72,3,3,1,NA,NA,3,3,1,10,1310,0.4743,NA
6,3,2,7,73,4,4,1,NA,NA,1,1,1,10,1320,0.39246,NA
6,3,2,7,74,2,4,3,NA,NA,3,3,1,10,1330,0.32922,NA
6,3,2,7,75,6,4,2,NA,NA,2,2,1,10,1340,0.66113,NA
6,3,2,7,76,2,3,4,NA,NA,3,3,0,0,1340,0.54779,NA
6,3,2,7,77,3,3,1,NA,NA,3,3,0,0,1340,0.54256,NA
6,3,2,7,78,5,3,2,NA,NA,3,3,0,0,1340,0.53769,NA
6,3,2,7,79,5,2,3,NA,NA,3,3,1,10,1350,0.37384,NA
6,3,2,7,80,4,1,4,NA,NA,1,1,1,10,1360,0.5279,NA
6,3,2,7,81,1,2,1,NA,NA,1,1,1,10,1370,0.45154,NA
6,3,2,7,82,3,1,3,NA,NA,3,3,0,0,1370,0.49908,NA
6,3,2,7,83,1,1,2,NA,NA,1,1,0,0,1370,0.60744,NA
6,3,2,7,84,6,2,4,NA,NA,2,2,0,0,1370,0.60046,NA
6,3,2,8,85,5,3,2,NA,NA,3,3,1,10,1380,0.98401,NA
6,3,2,8,86,3,1,3,NA,NA,3,3,1,10,1390,0.57721,NA
6,3,2,8,87,6,2,4,NA,NA,2,2,1,10,1400,0.64305,NA
6,3,2,8,88,6,4,2,NA,NA,2,2,0,0,1400,0.81101,NA
6,3,2,8,89,4,1,4,NA,NA,1,1,0,0,1400,0.71429,NA
6,3,2,8,90,3,3,1,NA,NA,3,3,0,0,1400,0.51086,NA
6,3,2,8,91,1,2,1,NA,NA,1,1,1,10,1410,0.64367,NA
6,3,2,8,92,1,1,2,NA,NA,1,1,1,10,1420,0.40288,NA
6,3,2,8,93,2,4,3,NA,NA,3,3,1,10,1430,0.5081,NA
6,3,2,8,94,2,3,4,NA,NA,3,3,1,10,1440,0.89673,NA
6,3,2,8,95,4,4,1,NA,NA,1,1,1,10,1450,0.60471,NA
6,3,2,8,96,5,2,3,NA,NA,3,3,1,10,1460,0.38236,NA
6,3,2,9,97,5,2,3,NA,NA,3,3,1,10,1470,0.28838,NA
6,3,2,9,98,6,2,4,NA,NA,2,2,1,10,1480,0.81284,NA
6,3,2,9,99,4,1,4,NA,NA,1,1,1,10,1490,0.36451,NA
6,3,2,9,100,6,4,2,NA,NA,2,2,0,0,1490,0.38319,NA
6,3,2,9,101,1,1,2,NA,NA,1,1,1,10,1500,0.33646,NA
6,3,2,9,102,4,4,1,NA,NA,1,1,1,10,1510,0.3645,NA
6,3,2,9,103,2,4,3,NA,NA,3,3,1,10,1520,0.67911,NA
6,3,2,9,104,1,2,1,NA,NA,1,1,0,0,1520,0.30716,NA
6,3,2,9,105,3,1,3,NA,NA,3,3,0,0,1520,0.50414,NA
6,3,2,9,106,5,3,2,NA,NA,3,3,1,10,1530,0.65341,NA
6,3,2,9,107,2,3,4,NA,NA,3,3,1,10,1540,0.39597,NA
6,3,2,9,108,3,3,1,NA,NA,3,3,1,10,1550,0.54789,NA
6,3,2,10,109,2,4,3,NA,NA,3,3,1,10,1560,0.33541,NA
6,3,2,10,110,5,2,3,NA,NA,3,3,1,10,1570,0.4827,NA
6,3,2,10,111,4,1,4,NA,NA,1,1,1,10,1580,0.63211,NA
6,3,2,10,112,1,1,2,NA,NA,1,1,1,10,1590,0.50249,NA
6,3,2,10,113,6,4,2,NA,NA,2,2,0,0,1590,0.57976,NA
6,3,2,10,114,3,3,1,NA,NA,3,3,1,10,1600,0.42906,NA
6,3,2,10,115,3,1,3,NA,NA,3,3,1,10,1610,0.50865,NA
6,3,2,10,116,5,3,2,NA,NA,3,3,0,0,1610,0.49018,NA
6,3,2,10,117,2,3,4,NA,NA,3,3,1,10,1620,0.37502,NA
6,3,2,10,118,6,2,4,NA,NA,2,2,0,0,1620,0.65692,NA
6,3,2,10,119,4,4,1,NA,NA,1,1,1,10,1630,0.5442,NA
6,3,2,10,120,1,2,1,NA,NA,1,1,1,10,1640,0.33895,NA
6,3,3,1,1,7,3,1,2,4,3,3,1,10,1650,0.6274,NA
6,3,3,1,2,7,1,3,4,2,3,3,1,10,1660,0.26727,NA
6,3,3,1,3,7,1,3,2,4,3,3,1,10,1670,0.23312,NA
6,3,3,1,4,7,1,4,2,3,3,3,0,0,1670,0.049138,NA
6,3,3,1,5,7,3,1,4,2,3,3,1,10,1680,0.03243,NA
6,3,3,1,6,7,1,2,3,4,3,3,1,10,1690,0.25009,NA
6,3,3,1,7,7,4,2,1,3,3,3,1,10,1700,0.21642,NA
6,3,3,1,8,7,3,4,2,1,3,3,1,10,1710,0.10009,NA
6,3,3,1,9,7,3,4,2,1,3,3,0,0,1710,0.21633,NA
6,3,3,1,10,7,3,4,2,1,3,3,1,10,1720,0.24981,NA
6,3,3,1,11,7,4,3,2,1,3,3,0,0,1720,0.23322,NA
6,3,3,1,12,7,4,2,3,1,3,3,1,10,1730,0.20012,NA
6,3,3,1,13,7,1,3,2,4,3,3,1,10,1740,0.2499,NA
6,3,3,1,14,7,2,4,1,3,3,3,0,0,1740,0.2665,NA
6,3,3,1,15,7,2,1,3,4,3,3,1,10,1750,0.14978,NA
6,3,3,1,16,7,2,3,1,4,3,3,1,10,1760,0.16702,NA
6,3,3,1,17,7,2,4,1,3,3,3,0,0,1760,0.16676,NA
6,3,3,1,18,7,4,1,2,3,3,3,1,10,1770,0.18353,NA
6,3,3,1,19,7,2,3,4,1,3,3,1,10,1780,0.016984,NA
6,3,3,1,20,7,4,1,3,2,3,3,0,0,1780,0.23301,NA
6,3,4,1,1,1,1,NA,NA,NA,NA,NA,NA,NA,NA,NA,60.1667
6,3,4,1,2,2,2,NA,NA,NA,NA,NA,NA,NA,NA,NA,31
6,3,4,1,3,3,3,NA,NA,NA,NA,NA,NA,NA,NA,NA,84
6,3,4,1,4,4,4,NA,NA,NA,NA,NA,NA,NA,NA,NA,13.6667
7,1,1,1,1,3,3,0,NA,NA,1,1,0,0,0,3.7628,NA
7,1,1,1,2,3,3,0,NA,NA,2,2,1,10,10,5.7283,NA
7,1,1,1,3,4,4,0,NA,NA,2,2,0,0,10,4.3058,NA
7,1,1,1,4,2,2,0,NA,NA,2,2,1,10,20,3.6378,NA
7,1,1,1,5,1,1,0,NA,NA,2,2,1,10,30,2.4859,NA
7,1,1,1,6,3,3,0,NA,NA,2,2,0,0,30,3.5955,NA
7,1,1,1,7,3,3,0,NA,NA,2,2,1,10,40,5.7333,NA
7,1,1,1,8,2,2,0,NA,NA,2,2,0,0,40,0.75029,NA
7,1,1,1,9,2,2,0,NA,NA,2,2,1,10,50,3.9313,NA
7,1,1,1,10,2,2,0,NA,NA,2,2,0,0,50,2.2218,NA
7,1,1,1,11,1,1,0,NA,NA,2,2,0,0,50,1.3027,NA
7,1,1,1,12,2,2,0,NA,NA,2,2,1,10,60,1.9175,NA
7,1,1,1,13,2,2,0,NA,NA,1,1,0,0,60,1.0433,NA
7,1,1,1,14,1,1,0,NA,NA,2,2,0,0,60,2.4932,NA
7,1,1,1,15,3,3,0,NA,NA,2,2,1,10,70,3.1236,NA
