subject,group,rewardCondition,phase,block,trial,trialType,option1,option2,option3,option4,clicked,choice,outcome,points,pointTotal,choice_rt,rating,opt,exclude
1,1,2,1,1,1,1,1,2,NA,NA,2,2,1,10,10,1.8167,NA,0,0
1,1,2,1,1,2,1,2,1,NA,NA,1,1,1,10,20,0.88724,NA,1,0
1,1,2,1,1,3,1,2,1,NA,NA,1,1,1,10,30,0.7911,NA,1,0
1,1,2,1,1,4,1,2,1,NA,NA,2,2,0,0,30,0.46696,NA,0,0
1,1,2,1,1,5,1,1,2,NA,NA,2,2,0,0,30,0.62777,NA,0,0
1,1,2,1,1,6,1,2,1,NA,NA,2,2,0,0,30,0.27041,NA,0,0
1,1,2,1,1,7,1,1,2,NA,NA,1,1,1,10,40,0.47936,NA,1,0
1,1,2,1,1,8,1,1,2,NA,NA,1,1,1,10,50,0.25571,NA,1,0
1,1,2,1,1,9,1,1,2,NA,NA,1,1,1,10,60,0.24169,NA,1,0
1,1,2,1,1,10,1,1,2,NA,NA,1,1,1,10,70,0.42634,NA,1,0
1,1,2,1,1,11,1,1,2,NA,NA,1,1,0,0,70,0.23731,NA,1,0
1,1,2,1,1,12,1,1,2,NA,NA,1,1,0,0,70,0.24744,NA,1,0
1,1,2,1,1,13,2,3,4,NA,NA,3,3,1,10,80,1.337,NA,1,0
1,1,2,1,1,14,1,2,1,NA,NA,2,2,0,0,80,1.9827,NA,0,0
1,1,2,1,1,15,2,3,4,NA,NA,3,3,0,0,80,1.2987,NA,1,0
1,1,2,1,1,16,2,4,3,NA,NA,4,4,0,0,80,1.1539,NA,0,0
1,1,2,1,1,17,2,4,3,NA,NA,3,3,1,10,90,0.90375,NA,1,0
1,1,2,1,1,18,1,2,1,NA,NA,2,2,0,0,90,0.80682,NA,0,0
1,1,2,1,1,19,2,3,4,NA,NA,3,3,1,10,100,1.3617,NA,1,0
1,1,2,1,1,20,2,4,3,NA,NA,3,3,0,0,100,0.75993,NA,1,0
1,1,2,1,1,21,2,4,3,NA,NA,4,4,0,0,100,1.1565,NA,0,0
1,1,2,1,1,22,2,3,4,NA,NA,3,3,1,10,110,0.95399,NA,1,0
1,1,2,1,1,23,1,1,2,NA,NA,1,1,1,10,120,0.7911,NA,1,0
1,1,2,1,1,24,1,2,1,NA,NA,1,1,1,10,130,1.0433,NA,1,0
1,1,2,1,1,25,1,2,1,NA,NA,1,1,1,10,140,0.56481,NA,1,0
1,1,2,1,1,26,1,2,1,NA,NA,1,1,1,10,150,0.8261,NA,1,0
1,1,2,1,1,27,1,1,2,NA,NA,1,1,0,0,150,0.67637,NA,1,0
1,1,2,1,1,28,1,2,1,NA,NA,2,2,0,0,150,0.51733,NA,0,0
1,1,2,1,1,29,2,3,4,NA,NA,3,3,0,0,150,0.53975,NA,1,0
1,1,2,1,1,30,2,4,3,NA,NA,4,4,0,0,150,0.84162,NA,0,0
1,1,2,1,2,31,1,1,2,NA,NA,2,2,0,0,150,0.65967,NA,0,0
1,1,2,1,2,32,1,2,1,NA,NA,1,1,1,10,160,0.65387,NA,1,0
1,1,2,1,2,33,1,1,2,NA,NA,1,1,1,10,170,0.43078,NA,1,0
1,1,2,1,2,34,2,3,4,NA,NA,3,3,1,10,180,0.73714,NA,1,0
1,1,2,1,2,35,1,2,1,NA,NA,1,1,1,10,190,0.84635,NA,1,0
1,1,2,1,2,36,2,4,3,NA,NA,3,3,1,10,200,0.39258,NA,1,0
1,1,2,1,2,37,1,1,2,NA,NA,1,1,1,10,210,0.36418,NA,1,0
1,1,2,1,2,38,2,3,4,NA,NA,3,3,0,0,210,0.25803,NA,1,0
1,1,2,1,2,39,1,1,2,NA,NA,1,1,1,10,220,0.42661,NA,1,0
1,1,2,1,2,40,2,4,3,NA,NA,4,4,0,0,220,0.22981,NA,0,0
1,1,2,1,2,41,2,3,4,NA,NA,3,3,1,10,230,0.44799,NA,1,0
1,1,2,1,2,42,2,3,4,NA,NA,3,3,1,10,240,0.40914,NA,1,0
1,1,2,1,2,43,1,2,1,NA,NA,1,1,1,10,250,0.70792,NA,1,0
1,1,2,1,2,44,1,1,2,NA,NA,1,1,0,0,250,0.67542,NA,1,0
1,1,2,1,2,45,2,4,3,NA,NA,3,3,1,10,260,0.32434,NA,1,0
1,1,2,1,2,46,1,1,2,NA,NA,2,2,1,10,270,0.53921,NA,0,0
1,1,2,1,2,47,1,1,2,NA,NA,2,2,0,0,270,0.44816,NA,0,0
1,1,2,1,2,48,2,4,3,NA,NA,4,4,0,0,270,0.78606,NA,0,0
1,1,2,1,2,49,2,3,4,NA,NA,3,3,0,0,270,0.51828,NA,1,0
1,1,2,1,2,50,1,1,2,NA,NA,1,1,0,0,270,0.58022,NA,1,0
1,1,2,1,2,51,1,2,1,NA,NA,2,2,0,0,270,0.33657,NA,0,0
1,1,2,1,2,52,1,1,2,NA,NA,1,1,1,10,280,0.62278,NA,1,0
1,1,2,1,2,53,2,4,3,NA,NA,4,4,1,10,290,0.70551,NA,0,0
1,1,2,1,2,54,1,2,1,NA,NA,1,1,0,0,290,0.72034,NA,1,0
1,1,2,1,2,55,1,2,1,NA,NA,2,2,1,10,300,0.33486,NA,0,0
1,1,2,1,2,56,1,1,2,NA,NA,2,2,0,0,300,0.36528,NA,0,0
1,1,2,1,2,57,1,2,1,NA,NA,1,1,1,10,310,0.74585,NA,1,0
1,1,2,1,2,58,1,2,1,NA,NA,1,1,0,0,310,0.36816,NA,1,0
1,1,2,1,2,59,1,2,1,NA,NA,1,1,1,10,320,0.34851,NA,1,0
1,1,2,1,2,60,1,2,1,NA,NA,1,1,0,0,320,0.46583,NA,1,0
1,1,2,1,3,61,2,3,4,NA,NA,3,3,1,10,330,0.70619,NA,1,0
1,1,2,1,3,62,2,4,3,NA,NA,3,3,0,0,330,0.31432,NA,1,0
1,1,2,1,3,63,1,1,2,NA,NA,2,2,1,10,340,0.71234,NA,0,0
1,1,2,1,3,64,1,1,2,NA,NA,2,2,0,0,340,1.5998,NA,0,0
1,1,2,1,3,65,1,2,1,NA,NA,2,2,1,10,350,0.57957,NA,0,0
1,1,2,1,3,66,1,1,2,NA,NA,1,1,1,10,360,1.4474,NA,1,0
1,1,2,1,3,67,2,3,4,NA,NA,3,3,1,10,370,0.60877,NA,1,0
1,1,2,1,3,68,1,2,1,NA,NA,2,2,1,10,380,0.58071,NA,0,0
1,1,2,1,3,69,1,1,2,NA,NA,2,2,1,10,390,0.51224,NA,0,0
1,1,2,1,3,70,2,4,3,NA,NA,3,3,1,10,400,0.60789,NA,1,0
1,1,2,1,3,71,1,1,2,NA,NA,2,2,0,0,400,0.43496,NA,0,0
1,1,2,1,3,72,1,2,1,NA,NA,2,2,0,0,400,0.32524,NA,0,0
1,1,2,1,3,73,1,1,2,NA,NA,1,1,1,10,410,0.42041,NA,1,0
1,1,2,1,3,74,2,4,3,NA,NA,3,3,1,10,420,0.4785,NA,1,0
1,1,2,1,3,75,1,2,1,NA,NA,2,2,0,0,420,0.34353,NA,0,0
1,1,2,1,3,76,2,3,4,NA,NA,3,3,1,10,430,0.39755,NA,1,0
1,1,2,1,3,77,2,4,3,NA,NA,3,3,0,0,430,0.47255,NA,1,0
1,1,2,1,3,78,1,1,2,NA,NA,1,1,0,0,430,0.31314,NA,1,0
1,1,2,1,3,79,1,1,2,NA,NA,1,1,1,10,440,1.2807,NA,1,0
1,1,2,1,3,80,2,4,3,NA,NA,3,3,0,0,440,0.29645,NA,1,0
1,1,2,1,3,81,1,1,2,NA,NA,1,1,1,10,450,0.76001,NA,1,0
1,1,2,1,3,82,1,2,1,NA,NA,1,1,1,10,460,0.71814,NA,1,0
1,1,2,1,3,83,1,2,1,NA,NA,1,1,0,0,460,1.0286,NA,1,0
1,1,2,1,3,84,1,2,1,NA,NA,2,2,1,10,470,0.55939,NA,0,0
1,1,2,1,3,85,1,2,1,NA,NA,2,2,0,0,470,0.43626,NA,0,0
1,1,2,1,3,86,1,2,1,NA,NA,1,1,1,10,480,0.61436,NA,1,0
1,1,2,1,3,87,2,3,4,NA,NA,4,4,0,0,480,0.82524,NA,0,0
1,1,2,1,3,88,1,1,2,NA,NA,2,2,0,0,480,0.51585,NA,0,0
1,1,2,1,3,89,1,2,1,NA,NA,1,1,0,0,480,0.5383,NA,1,0
1,1,2,1,3,90,2,3,4,NA,NA,3,3,1,10,490,1.0318,NA,1,0
1,1,2,1,4,91,1,1,2,NA,NA,2,2,0,0,490,0.25063,NA,0,0
1,1,2,1,4,92,1,2,1,NA,NA,1,1,0,0,490,0.78762,NA,1,0
1,1,2,1,4,93,1,2,1,NA,NA,2,2,0,0,490,0.16003,NA,0,0
1,1,2,1,4,94,1,1,2,NA,NA,1,1,0,0,490,0.49318,NA,1,0
1,1,2,1,4,95,1,1,2,NA,NA,2,2,0,0,490,0.30896,NA,0,0
1,1,2,1,4,96,1,2,1,NA,NA,1,1,0,0,490,0.42027,NA,1,0
1,1,2,1,4,97,1,1,2,NA,NA,1,1,1,10,500,0.84715,NA,1,0
1,1,2,1,4,98,2,3,4,NA,NA,3,3,1,10,510,0.36023,NA,1,0
1,1,2,1,4,99,2,3,4,NA,NA,3,3,1,10,520,0.76633,NA,1,0
1,1,2,1,4,100,2,4,3,NA,NA,3,3,1,10,530,0.40984,NA,1,0
1,1,2,1,4,101,1,2,1,NA,NA,2,2,1,10,540,0.4696,NA,0,0
1,1,2,1,4,102,1,1,2,NA,NA,2,2,0,0,540,0.39719,NA,0,0
1,1,2,1,4,103,1,1,2,NA,NA,2,2,0,0,540,0.4,NA,0,0
1,1,2,1,4,104,1,2,1,NA,NA,1,1,1,10,550,0.92316,NA,1,0
1,1,2,1,4,105,1,1,2,NA,NA,1,1,0,0,550,0.6579,NA,1,0
1,1,2,1,4,106,1,2,1,NA,NA,2,2,1,10,560,0.34746,NA,0,0
1,1,2,1,4,107,2,4,3,NA,NA,3,3,1,10,570,0.52058,NA,1,0
1,1,2,1,4,108,2,3,4,NA,NA,3,3,0,0,570,0.75064,NA,1,0
1,1,2,1,4,109,2,3,4,NA,NA,4,4,0,0,570,1.1644,NA,0,0
1,1,2,1,4,110,1,1,2,NA,NA,2,2,1,10,580,0.41709,NA,0,0
1,1,2,1,4,111,2,4,3,NA,NA,3,3,1,10,590,0.4912,NA,1,0
1,1,2,1,4,112,2,4,3,NA,NA,3,3,1,10,600,0.37949,NA,1,0
1,1,2,1,4,113,2,4,3,NA,NA,3,3,1,10,610,0.42404,NA,1,0
1,1,2,1,4,114,2,3,4,NA,NA,3,3,1,10,620,0.23486,NA,1,0
1,1,2,1,4,115,1,2,1,NA,NA,2,2,0,0,620,0.87662,NA,0,0
1,1,2,1,4,116,1,2,1,NA,NA,1,1,0,0,620,0.45378,NA,1,0
1,1,2,1,4,117,1,2,1,NA,NA,2,2,0,0,620,0.41548,NA,0,0
1,1,2,1,4,118,1,1,2,NA,NA,1,1,1,10,630,0.53811,NA,1,0
1,1,2,1,4,119,1,2,1,NA,NA,1,1,0,0,630,0.6633,NA,1,0
1,1,2,1,4,120,1,1,2,NA,NA,2,2,0,0,630,0.20871,NA,0,0
1,1,2,1,5,121,1,1,2,NA,NA,1,1,1,10,640,0.23544,NA,1,0
1,1,2,1,5,122,1,1,2,NA,NA,1,1,1,10,650,0.59673,NA,1,0
1,1,2,1,5,123,1,2,1,NA,NA,1,1,0,0,650,0.95185,NA,1,0
1,1,2,1,5,124,1,2,1,NA,NA,2,2,0,0,650,0.33344,NA,0,0
1,1,2,1,5,125,2,3,4,NA,NA,3,3,0,0,650,0.60334,NA,1,0
1,1,2,1,5,126,2,4,3,NA,NA,4,4,1,10,660,0.47949,NA,0,0
1,1,2,1,5,127,1,1,2,NA,NA,2,2,0,0,660,0.18428,NA,0,0
1,1,2,1,5,128,1,2,1,NA,NA,1,1,1,10,670,0.89166,NA,1,0
1,1,2,1,5,129,2,3,4,NA,NA,3,3,1,10,680,0.33935,NA,1,0
1,1,2,1,5,130,1,1,2,NA,NA,2,2,1,10,690,0.37025,NA,0,0
1,1,2,1,5,131,2,4,3,NA,NA,4,4,0,0,690,0.27818,NA,0,0
1,1,2,1,5,132,1,2,1,NA,NA,1,1,1,10,700,0.68712,NA,1,0
1,1,2,1,5,133,1,1,2,NA,NA,2,2,0,0,700,0.64778,NA,0,0
1,1,2,1,5,134,1,1,2,NA,NA,1,1,1,10,710,0.78294,NA,1,0
1,1,2,1,5,135,1,2,1,NA,NA,1,1,1,10,720,0.40394,NA,1,0
1,1,2,1,5,136,1,1,2,NA,NA,1,1,1,10,730,0.47907,NA,1,0
1,1,2,1,5,137,1,2,1,NA,NA,1,1,0,0,730,0.33629,NA,1,0
1,1,2,1,5,138,1,1,2,NA,NA,2,2,1,10,740,0.31703,NA,0,0
1,1,2,1,5,139,1,2,1,NA,NA,2,2,0,0,740,0.67651,NA,0,0
1,1,2,1,5,140,1,2,1,NA,NA,1,1,0,0,740,0.64521,NA,1,0
1,1,2,1,5,141,2,4,3,NA,NA,3,3,1,10,750,0.35913,NA,1,0
1,1,2,1,5,142,1,1,2,NA,NA,1,1,1,10,760,0.49234,NA,1,0
1,1,2,1,5,143,1,2,1,NA,NA,2,2,1,10,770,0.38843,NA,0,0
1,1,2,1,5,144,1,2,1,NA,NA,2,2,0,0,770,0.27224,NA,0,0
1,1,2,1,5,145,2,4,3,NA,NA,3,3,0,0,770,0.86502,NA,1,0
1,1,2,1,5,146,2,4,3,NA,NA,4,4,0,0,770,0.90574,NA,0,0
1,1,2,1,5,147,2,3,4,NA,NA,3,3,1,10,780,0.31299,NA,1,0
1,1,2,1,5,148,2,3,4,NA,NA,3,3,1,10,790,0.25014,NA,1,0
1,1,2,1,5,149,1,1,2,NA,NA,1,1,1,10,800,0.62566,NA,1,0
1,1,2,1,5,150,2,3,4,NA,NA,3,3,0,0,800,0.060085,NA,1,0
1,1,2,2,1,1,2,4,3,NA,NA,3,3,1,10,810,0.33931,NA,1,0
1,1,2,2,1,2,3,1,3,NA,NA,1,1,1,10,820,0.35334,NA,0,0
1,1,2,2,1,3,4,4,1,NA,NA,4,4,0,0,820,0.49445,NA,0,0
1,1,2,2,1,4,5,3,2,NA,NA,2,2,1,10,830,0.21448,NA,0,0
1,1,2,2,1,5,6,2,4,NA,NA,2,2,0,0,830,0.36112,NA,1,0
1,1,2,2,1,6,1,2,1,NA,NA,2,2,1,10,840,0.37337,NA,0,0
1,1,2,2,1,7,5,2,3,NA,NA,3,3,0,0,840,0.27466,NA,1,0
1,1,2,2,1,8,4,1,4,NA,NA,1,1,1,10,850,0.34737,NA,1,0
1,1,2,2,1,9,6,4,2,NA,NA,2,2,1,10,860,0.28277,NA,1,0
1,1,2,2,1,10,3,3,1,NA,NA,1,1,1,10,870,0.40074,NA,0,0
1,1,2,2,1,11,1,1,2,NA,NA,2,2,0,0,870,0.36698,NA,0,0
1,1,2,2,1,12,2,3,4,NA,NA,3,3,1,10,880,0.18481,NA,1,0
1,1,2,2,2,13,5,2,3,NA,NA,3,3,1,10,890,0.35674,NA,1,0
1,1,2,2,2,14,2,3,4,NA,NA,3,3,1,10,900,0.61778,NA,1,0
1,1,2,2,2,15,6,4,2,NA,NA,2,2,0,0,900,0.30839,NA,1,0
1,1,2,2,2,16,4,4,1,NA,NA,4,4,0,0,900,0.34783,NA,0,0
1,1,2,2,2,17,6,2,4,NA,NA,4,4,1,10,910,0.81784,NA,0,0
1,1,2,2,2,18,1,2,1,NA,NA,2,2,0,0,910,0.1077,NA,0,0
1,1,2,2,2,19,1,1,2,NA,NA,1,1,0,0,910,0.64953,NA,1,0
1,1,2,2,2,20,3,3,1,NA,NA,3,3,1,10,920,1.044,NA,1,0
1,1,2,2,2,21,2,4,3,NA,NA,3,3,1,10,930,0.41533,NA,1,0
1,1,2,2,2,22,4,1,4,NA,NA,1,1,1,10,940,0.38438,NA,1,0
1,1,2,2,2,23,3,1,3,NA,NA,3,3,1,10,950,0.3652,NA,1,0
1,1,2,2,2,24,5,3,2,NA,NA,2,2,1,10,960,0.23384,NA,0,0
1,1,2,2,3,25,2,3,4,NA,NA,4,4,0,0,960,0.50085,NA,0,0
1,1,2,2,3,26,3,3,1,NA,NA,1,1,0,0,960,0.80364,NA,0,0
1,1,2,2,3,27,5,3,2,NA,NA,2,2,1,10,970,1.0869,NA,0,0
1,1,2,2,3,28,1,2,1,NA,NA,1,1,1,10,980,0.71885,NA,1,0
1,1,2,2,3,29,1,1,2,NA,NA,2,2,0,0,980,0.47691,NA,0,0
1,1,2,2,3,30,6,2,4,NA,NA,2,2,1,10,990,0.57407,NA,1,0
1,1,2,2,3,31,4,4,1,NA,NA,4,4,0,0,990,0.34692,NA,0,0
1,1,2,2,3,32,3,1,3,NA,NA,1,1,1,10,1000,0.71199,NA,0,0
1,1,2,2,3,33,5,2,3,NA,NA,3,3,0,0,1000,0.84801,NA,1,0
1,1,2,2,3,34,4,1,4,NA,NA,1,1,1,10,1010,0.48858,NA,1,0
1,1,2,2,3,35,6,4,2,NA,NA,2,2,1,10,1020,0.68907,NA,1,0
1,1,2,2,3,36,2,4,3,NA,NA,3,3,1,10,1030,0.90456,NA,1,0
1,1,2,2,4,37,2,4,3,NA,NA,3,3,1,10,1040,1.9438,NA,1,0
1,1,2,2,4,38,4,1,4,NA,NA,4,4,0,0,1040,0.47856,NA,0,0
1,1,2,2,4,39,5,2,3,NA,NA,2,2,1,10,1050,0.20696,NA,0,0
1,1,2,2,4,40,1,1,2,NA,NA,2,2,1,10,1060,0.65063,NA,0,0
1,1,2,2,4,41,2,3,4,NA,NA,4,4,0,0,1060,0.36295,NA,0,0
1,1,2,2,4,42,6,2,4,NA,NA,2,2,0,0,1060,0.40915,NA,1,0
1,1,2,2,4,43,4,4,1,NA,NA,4,4,0,0,1060,0.62775,NA,0,0
1,1,2,2,4,44,5,3,2,NA,NA,2,2,1,10,1070,1.4948,NA,0,0
1,1,2,2,4,45,3,3,1,NA,NA,3,3,1,10,1080,0.935,NA,1,0
1,1,2,2,4,46,3,1,3,NA,NA,3,3,1,10,1090,0.6128,NA,1,0
1,1,2,2,4,47,6,4,2,NA,NA,2,2,1,10,1100,0.90457,NA,1,0
1,1,2,2,4,48,1,2,1,NA,NA,2,2,1,10,1110,0.71198,NA,0,0
1,1,2,2,5,49,4,1,4,NA,NA,1,1,1,10,1120,1.983,NA,1,0
1,1,2,2,5,50,5,2,3,NA,NA,2,2,1,10,1130,0.64321,NA,0,0
1,1,2,2,5,51,2,4,3,NA,NA,3,3,1,10,1140,3.3402,NA,1,0
1,1,2,2,5,52,6,2,4,NA,NA,2,2,1,10,1150,3.3945,NA,1,0
1,1,2,2,5,53,1,2,1,NA,NA,2,2,0,0,1150,1.1171,NA,0,0
1,1,2,2,5,54,6,4,2,NA,NA,2,2,0,0,1150,1.7337,NA,1,0
1,1,2,2,5,55,5,3,2,NA,NA,3,3,1,10,1160,2.8593,NA,1,0
1,1,2,2,5,56,3,3,1,NA,NA,1,1,1,10,1170,2.3409,NA,0,0
1,1,2,2,5,57,3,1,3,NA,NA,3,3,1,10,1180,1.491,NA,1,0
1,1,2,2,5,58,1,1,2,NA,NA,1,1,1,10,1190,0.29828,NA,1,0
1,1,2,2,5,59,2,3,4,NA,NA,3,3,1,10,1200,0.35363,NA,1,0
1,1,2,2,5,60,4,4,1,NA,NA,4,4,0,0,1200,0.44768,NA,0,0
1,1,2,2,6,61,2,4,3,NA,NA,3,3,0,0,1200,0.80099,NA,1,0
1,1,2,2,6,62,4,1,4,NA,NA,4,4,1,10,1210,0.66015,NA,0,0
1,1,2,2,6,63,5,3,2,NA,NA,3,3,1,10,1220,1.285,NA,1,0
1,1,2,2,6,64,3,3,1,NA,NA,1,1,1,10,1230,1.3329,NA,0,0
1,1,2,2,6,65,6,4,2,NA,NA,2,2,1,10,1240,0.59605,NA,1,0
1,1,2,2,6,66,1,2,1,NA,NA,2,2,0,0,1240,0.43195,NA,0,0
1,1,2,2,6,67,1,1,2,NA,NA,1,1,0,0,1240,0.9368,NA,1,0
1,1,2,2,6,68,2,3,4,NA,NA,3,3,1,10,1250,0.79951,NA,1,0
1,1,2,2,6,69,4,4,1,NA,NA,1,1,1,10,1260,1.0741,NA,1,0
1,1,2,2,6,70,5,2,3,NA,NA,3,3,0,0,1260,0.43518,NA,1,0
1,1,2,2,6,71,6,2,4,NA,NA,2,2,0,0,1260,0.46925,NA,1,0
1,1,2,2,6,72,3,1,3,NA,NA,3,3,1,10,1270,0.65346,NA,1,0
1,1,2,2,7,73,3,3,1,NA,NA,1,1,0,0,1270,1.2551,NA,0,0
1,1,2,2,7,74,6,2,4,NA,NA,2,2,0,0,1270,0.38421,NA,1,0
1,1,2,2,7,75,6,4,2,NA,NA,4,4,0,0,1270,0.26087,NA,0,0
1,1,2,2,7,76,3,1,3,NA,NA,1,1,1,10,1280,0.2057,NA,0,0
1,1,2,2,7,77,4,1,4,NA,NA,1,1,1,10,1290,0.76085,NA,1,0
1,1,2,2,7,78,4,4,1,NA,NA,1,1,0,0,1290,0.43127,NA,1,0
1,1,2,2,7,79,2,4,3,NA,NA,4,4,0,0,1290,0.61744,NA,0,0
1,1,2,2,7,80,5,2,3,NA,NA,3,3,1,10,1300,0.34864,NA,1,0
1,1,2,2,7,81,1,1,2,NA,NA,2,2,1,10,1310,0.1453,NA,0,0
1,1,2,2,7,82,5,3,2,NA,NA,3,3,1,10,1320,0.2792,NA,1,0
1,1,2,2,7,83,2,3,4,NA,NA,3,3,0,0,1320,0.064415,NA,1,0
1,1,2,2,7,84,1,2,1,NA,NA,2,2,1,10,1330,0.39257,NA,0,0
1,1,2,2,8,85,3,1,3,NA,NA,3,3,1,10,1340,0.53276,NA,1,0
1,1,2,2,8,86,4,1,4,NA,NA,1,1,1,10,1350,0.20281,NA,1,0
1,1,2,2,8,87,5,2,3,NA,NA,2,2,1,10,1360,0.24536,NA,0,0
1,1,2,2,8,88,1,2,1,NA,NA,2,2,0,0,1360,0.83869,NA,0,0
1,1,2,2,8,89,3,3,1,NA,NA,1,1,0,0,1360,0.37755,NA,0,0
1,1,2,2,8,90,4,4,1,NA,NA,4,4,0,0,1360,0.60603,NA,0,0
1,1,2,2,8,91,2,4,3,NA,NA,3,3,1,10,1370,0.25684,NA,1,0
1,1,2,2,8,92,6,4,2,NA,NA,4,4,0,0,1370,0.25045,NA,0,0
1,1,2,2,8,93,6,2,4,NA,NA,4,4,0,0,1370,0.30784,NA,0,0
1,1,2,2,8,94,2,3,4,NA,NA,3,3,1,10,1380,0.33158,NA,1,0
1,1,2,2,8,95,5,3,2,NA,NA,3,3,1,10,1390,0.27291,NA,1,0
1,1,2,2,8,96,1,1,2,NA,NA,2,2,1,10,1400,0.22548,NA,0,0
1,1,2,2,9,97,1,1,2,NA,NA,2,2,0,0,1400,0.26106,NA,0,0
1,1,2,2,9,98,3,1,3,NA,NA,3,3,0,0,1400,0.36615,NA,1,0
1,1,2,2,9,99,1,2,1,NA,NA,1,1,1,10,1410,0.35482,NA,1,0
1,1,2,2,9,100,4,4,1,NA,NA,4,4,0,0,1410,0.39209,NA,0,0
1,1,2,2,9,101,4,1,4,NA,NA,4,4,1,10,1420,0.65986,NA,0,0
1,1,2,2,9,102,3,3,1,NA,NA,3,3,1,10,1430,0.38953,NA,1,0
1,1,2,2,9,103,2,3,4,NA,NA,3,3,1,10,1440,0.11282,NA,1,0
1,1,2,2,9,104,6,4,2,NA,NA,2,2,0,0,1440,0.51236,NA,1,0
1,1,2,2,9,105,5,2,3,NA,NA,2,2,1,10,1450,0.49574,NA,0,0
1,1,2,2,9,106,6,2,4,NA,NA,2,2,0,0,1450,0.26406,NA,1,0
1,1,2,2,9,107,5,3,2,NA,NA,2,2,0,0,1450,0.19224,NA,0,0
1,1,2,2,9,108,2,4,3,NA,NA,3,3,1,10,1460,1.1963,NA,1,0
1,1,2,2,10,109,5,3,2,NA,NA,3,3,1,10,1470,0.28064,NA,1,0
1,1,2,2,10,110,1,1,2,NA,NA,2,2,0,0,1470,0.48058,NA,0,0
1,1,2,2,10,111,6,4,2,NA,NA,2,2,0,0,1470,0.27255,NA,1,0
1,1,2,2,10,112,6,2,4,NA,NA,4,4,0,0,1470,1.0567,NA,0,0
1,1,2,2,10,113,3,1,3,NA,NA,3,3,1,10,1480,0.28218,NA,1,0
1,1,2,2,10,114,1,2,1,NA,NA,2,2,0,0,1480,0.41774,NA,0,0
1,1,2,2,10,115,2,3,4,NA,NA,3,3,1,10,1490,0.31645,NA,1,0
1,1,2,2,10,116,2,4,3,NA,NA,3,3,1,10,1500,0.23546,NA,1,0
1,1,2,2,10,117,3,3,1,NA,NA,3,3,0,0,1500,0.15044,NA,1,0
1,1,2,2,10,118,5,2,3,NA,NA,3,3,0,0,1500,0.21829,NA,1,0
1,1,2,2,10,119,4,1,4,NA,NA,1,1,1,10,1510,0.46075,NA,1,0
1,1,2,2,10,120,4,4,1,NA,NA,4,4,1,10,1520,0.25412,NA,0,0
1,1,2,3,1,1,7,3,4,1,2,3,3,1,10,1530,1.0706,NA,NA,0
1,1,2,3,1,2,7,1,4,3,2,2,2,0,0,1530,0.18377,NA,NA,0
1,1,2,3,1,3,7,2,4,1,3,4,4,1,10,1540,0.18795,NA,NA,0
1,1,2,3,1,4,7,2,1,4,3,2,2,1,10,1550,0.06335,NA,NA,0
1,1,2,3,1,5,7,4,2,1,3,3,3,0,0,1550,0.11706,NA,NA,0
1,1,2,3,1,6,7,2,1,4,3,1,1,1,10,1560,0.049566,NA,NA,0
1,1,2,3,1,7,7,3,4,2,1,2,2,0,0,1560,0.0002373,NA,NA,0
1,1,2,3,1,8,7,1,4,2,3,1,1,0,0,1560,0.46721,NA,NA,0
1,1,2,3,1,9,7,4,3,1,2,3,3,1,10,1570,0.74759,NA,NA,0
1,1,2,3,1,10,7,2,4,1,3,4,4,0,0,1570,0.24938,NA,NA,0
1,1,2,3,1,11,7,1,4,2,3,2,2,0,0,1570,0.083104,NA,NA,0
1,1,2,3,1,12,7,3,1,4,2,3,3,0,0,1570,0.21627,NA,NA,0
1,1,2,3,1,13,7,1,2,3,4,1,1,1,10,1580,0.099558,NA,NA,0
1,1,2,3,1,14,7,3,4,2,1,4,4,0,0,1580,0.11619,NA,NA,0
1,1,2,3,1,15,7,3,2,1,4,2,2,0,0,1580,0.13278,NA,NA,0
1,1,2,3,1,16,7,4,2,1,3,3,3,1,10,1590,0.10045,NA,NA,0
1,1,2,3,1,17,7,4,2,3,1,4,4,1,10,1600,0.0002789,NA,NA,0
1,1,2,3,1,18,7,2,3,4,1,1,1,1,10,1610,0.033061,NA,NA,0
1,1,2,3,1,19,7,2,4,3,1,2,2,0,0,1610,0.017043,NA,NA,0
1,1,2,3,1,20,7,3,2,4,1,1,1,0,0,1610,0.144,NA,NA,0
1,1,2,4,1,1,1,1,NA,NA,NA,NA,NA,NA,NA,NA,NA,70,NA,0
1,1,2,4,1,2,2,2,NA,NA,NA,NA,NA,NA,NA,NA,NA,70.3333,NA,0
1,1,2,4,1,3,3,3,NA,NA,NA,NA,NA,NA,NA,NA,NA,20.8333,NA,0
1,1,2,4,1,4,4,4,NA,NA,NA,NA,NA,NA,NA,NA,NA,20.8333,NA,0
2,2,2,1,1,1,2,3,4,NA,NA,4,4,0,0,0,1.443,NA,0,0
2,2,2,1,1,2,2,3,4,NA,NA,3,3,1,10,10,0.87194,NA,1,0
2,2,2,1,1,3,2,3,4,NA,NA,3,3,1,10,20,0.67757,NA,1,0
2,2,2,1,1,4,1,2,1,NA,NA,2,2,0,0,20,1.7316,NA,0,0
2,2,2,1,1,5,2,3,4,NA,NA,3,3,1,10,30,1.0217,NA,1,0
2,2,2,1,1,6,2,3,4,NA,NA,3,3,1,10,40,0.83766,NA,1,0
2,2,2,1,1,7,2,3,4,NA,NA,3,3,0,0,40,0.70814,NA,1,0
2,2,2,1,1,8,1,2,1,NA,NA,1,1,1,10,50,0.9462,NA,1,0
2,2,2,1,1,9,2,3,4,NA,NA,4,4,0,0,50,1.2923,NA,0,0
2,2,2,1,1,10,1,2,1,NA,NA,1,1,1,10,60,1.2169,NA,1,0
2,2,2,1,1,11,1,2,1,NA,NA,1,1,1,10,70,1.0569,NA,1,0
2,2,2,1,1,12,1,2,1,NA,NA,1,1,1,10,80,0.5004,NA,1,0
2,2,2,1,1,13,1,2,1,NA,NA,1,1,0,0,80,0.45137,NA,1,0
2,2,2,1,1,14,2,3,4,NA,NA,3,3,1,10,90,0.45791,NA,1,0
2,2,2,1,1,15,2,3,4,NA,NA,3,3,1,10,100,0.33747,NA,1,0
2,2,2,1,1,16,1,2,1,NA,NA,1,1,1,10,110,1.3089,NA,1,0
2,2,2,1,1,17,2,3,4,NA,NA,3,3,1,10,120,0.80944,NA,1,0
2,2,2,1,1,18,1,2,1,NA,NA,1,1,1,10,130,0.41805,NA,1,0
2,2,2,1,1,19,1,2,1,NA,NA,1,1,1,10,140,0.78531,NA,1,0
2,2,2,1,1,20,2,3,4,NA,NA,3,3,1,10,150,0.88194,NA,1,0
2,2,2,1,1,21,1,2,1,NA,NA,1,1,1,10,160,0.35093,NA,1,0
2,2,2,1,1,22,2,3,4,NA,NA,3,3,1,10,170,0.36176,NA,1,0
2,2,2,1,1,23,2,3,4,NA,NA,3,3,0,0,170,0.82059,NA,1,0
2,2,2,1,1,24,1,2,1,NA,NA,1,1,0,0,170,0.63673,NA,1,0
2,2,2,1,1,25,1,2,1,NA,NA,2,2,0,0,170,1.324,NA,0,0
2,2,2,1,1,26,1,2,1,NA,NA,1,1,0,0,170,0.55915,NA,1,0
2,2,2,1,1,27,1,2,1,NA,NA,1,1,1,10,180,0.24986,NA,1,0
2,2,2,1,1,28,1,2,1,NA,NA,2,2,0,0,180,0.32953,NA,0,0
2,2,2,1,1,29,2,3,4,NA,NA,3,3,1,10,190,0.92467,NA,1,0
2,2,2,1,1,30,2,3,4,NA,NA,3,3,1,10,200,0.61744,NA,1,0
2,2,2,1,2,31,1,1,2,NA,NA,1,1,0,0,200,1.3285,NA,1,0
2,2,2,1,2,32,1,1,2,NA,NA,1,1,0,0,200,0.2171,NA,1,0
2,2,2,1,2,33,2,3,4,NA,NA,3,3,1,10,210,4.6767,NA,1,0
2,2,2,1,2,34,1,1,2,NA,NA,2,2,0,0,210,0.5349,NA,0,0
2,2,2,1,2,35,2,3,4,NA,NA,3,3,1,10,220,0.73098,NA,1,0
2,2,2,1,2,36,1,1,2,NA,NA,1,1,1,10,230,0.43021,NA,1,0
2,2,2,1,2,37,2,3,4,NA,NA,3,3,1,10,240,0.78887,NA,1,0
2,2,2,1,2,38,1,1,2,NA,NA,1,1,1,10,250,0.43096,NA,1,0
2,2,2,1,2,39,1,1,2,NA,NA,1,1,1,10,260,0.82241,NA,1,0
2,2,2,1,2,40,1,1,2,NA,NA,1,1,0,0,260,0.43308,NA,1,0
2,2,2,1,2,41,2,3,4,NA,NA,3,3,1,10,270,1.189,NA,1,0
2,2,2,1,2,42,1,1,2,NA,NA,1,1,0,0,270,0.72674,NA,1,0
2,2,2,1,2,43,2,3,4,NA,NA,3,3,1,10,280,0.31459,NA,1,0
2,2,2,1,2,44,1,1,2,NA,NA,2,2,0,0,280,0.26814,NA,0,0
2,2,2,1,2,45,1,1,2,NA,NA,1,1,1,10,290,0.80307,NA,1,0
2,2,2,1,2,46,2,3,4,NA,NA,3,3,1,10,300,0.79657,NA,1,0
2,2,2,1,2,47,2,3,4,NA,NA,3,3,1,10,310,0.48399,NA,1,0
2,2,2,1,2,48,1,1,2,NA,NA,1,1,0,0,310,0.9539,NA,1,0
2,2,2,1,2,49,1,1,2,NA,NA,2,2,0,0,310,0.34954,NA,0,0
2,2,2,1,2,50,1,1,2,NA,NA,1,1,1,10,320,1.6954,NA,1,0
2,2,2,1,2,51,1,1,2,NA,NA,1,1,1,10,330,0.43399,NA,1,0
2,2,2,1,2,52,1,1,2,NA,NA,1,1,1,10,340,0.48423,NA,1,0
2,2,2,1,2,53,2,3,4,NA,NA,3,3,1,10,350,0.88076,NA,1,0
2,2,2,1,2,54,2,3,4,NA,NA,3,3,1,10,360,0.65326,NA,1,0
2,2,2,1,2,55,2,3,4,NA,NA,3,3,1,10,370,0.40442,NA,1,0
2,2,2,1,2,56,2,3,4,NA,NA,3,3,1,10,380,0.35072,NA,1,0
2,2,2,1,2,57,2,3,4,NA,NA,3,3,0,0,380,0.35001,NA,1,0
2,2,2,1,2,58,2,3,4,NA,NA,3,3,0,0,380,0.8263,NA,1,0
2,2,2,1,2,59,2,3,4,NA,NA,4,4,0,0,380,2.1862,NA,0,0
2,2,2,1,2,60,2,3,4,NA,NA,3,3,1,10,390,0.48357,NA,1,0
2,2,2,1,3,61,1,1,2,NA,NA,1,1,1,10,400,2.7911,NA,1,0
2,2,2,1,3,62,2,3,4,NA,NA,3,3,1,10,410,0.91126,NA,1,0
2,2,2,1,3,63,1,1,2,NA,NA,1,1,1,10,420,0.37929,NA,1,0
2,2,2,1,3,64,2,3,4,NA,NA,3,3,1,10,430,0.26069,NA,1,0
2,2,2,1,3,65,1,1,2,NA,NA,1,1,1,10,440,0.31523,NA,1,0
2,2,2,1,3,66,2,3,4,NA,NA,3,3,0,0,440,0.27919,NA,1,0
2,2,2,1,3,67,2,3,4,NA,NA,4,4,0,0,440,0.36534,NA,0,0
2,2,2,1,3,68,2,3,4,NA,NA,3,3,1,10,450,0.34968,NA,1,0
2,2,2,1,3,69,1,1,2,NA,NA,1,1,0,0,450,0.74709,NA,1,0
2,2,2,1,3,70,2,3,4,NA,NA,3,3,1,10,460,0.7097,NA,1,0
2,2,2,1,3,71,2,3,4,NA,NA,3,3,1,10,470,0.87449,NA,1,0
2,2,2,1,3,72,1,1,2,NA,NA,1,1,1,10,480,1.1439,NA,1,0
2,2,2,1,3,73,1,1,2,NA,NA,1,1,1,10,490,0.66638,NA,1,0
2,2,2,1,3,74,1,1,2,NA,NA,1,1,1,10,500,0.31652,NA,1,0
2,2,2,1,3,75,1,1,2,NA,NA,1,1,1,10,510,0.41731,NA,1,0
2,2,2,1,3,76,2,3,4,NA,NA,3,3,1,10,520,0.82135,NA,1,0
2,2,2,1,3,77,2,3,4,NA,NA,3,3,1,10,530,0.45027,NA,1,0
2,2,2,1,3,78,1,1,2,NA,NA,1,1,0,0,530,0.85141,NA,1,0
2,2,2,1,3,79,2,3,4,NA,NA,3,3,1,10,540,0.82643,NA,1,0
2,2,2,1,3,80,2,3,4,NA,NA,3,3,1,10,550,0.69851,NA,1,0
2,2,2,1,3,81,2,3,4,NA,NA,3,3,1,10,560,0.5666,NA,1,0
2,2,2,1,3,82,1,1,2,NA,NA,2,2,1,10,570,1.4241,NA,0,0
2,2,2,1,3,83,2,3,4,NA,NA,3,3,1,10,580,0.72755,NA,1,0
2,2,2,1,3,84,2,3,4,NA,NA,3,3,1,10,590,0.38385,NA,1,0
2,2,2,1,3,85,1,1,2,NA,NA,2,2,0,0,590,1.5652,NA,0,0
2,2,2,1,3,86,1,1,2,NA,NA,1,1,0,0,590,2.1663,NA,1,0
2,2,2,1,3,87,1,1,2,NA,NA,1,1,0,0,590,0.83882,NA,1,0
2,2,2,1,3,88,2,3,4,NA,NA,3,3,1,10,600,0.7425,NA,1,0
2,2,2,1,3,89,1,1,2,NA,NA,2,2,0,0,600,3.162,NA,0,0
2,2,2,1,3,90,1,1,2,NA,NA,2,2,0,0,600,1.7361,NA,0,0
2,2,2,1,4,91,2,3,4,NA,NA,3,3,1,10,610,0.66676,NA,1,0
2,2,2,1,4,92,2,3,4,NA,NA,3,3,1,10,620,0.3504,NA,1,0
2,2,2,1,4,93,1,1,2,NA,NA,1,1,0,0,620,1.0679,NA,1,0
2,2,2,1,4,94,2,3,4,NA,NA,3,3,1,10,630,0.65772,NA,1,0
2,2,2,1,4,95,1,1,2,NA,NA,2,2,0,0,630,0.72017,NA,0,0
2,2,2,1,4,96,2,3,4,NA,NA,3,3,1,10,640,0.32386,NA,1,0
2,2,2,1,4,97,1,1,2,NA,NA,1,1,1,10,650,0.28376,NA,1,0
2,2,2,1,4,98,2,3,4,NA,NA,3,3,1,10,660,0.70237,NA,1,0
2,2,2,1,4,99,1,1,2,NA,NA,1,1,1,10,670,0.28246,NA,1,0
2,2,2,1,4,100,1,1,2,NA,NA,1,1,0,0,670,0.84814,NA,1,0
2,2,2,1,4,101,1,1,2,NA,NA,1,1,1,10,680,0.31654,NA,1,0
2,2,2,1,4,102,2,3,4,NA,NA,3,3,0,0,680,0.80986,NA,1,0
2,2,2,1,4,103,1,1,2,NA,NA,2,2,0,0,680,1.7938,NA,0,0
2,2,2,1,4,104,2,3,4,NA,NA,3,3,0,0,680,0.84249,NA,1,0
2,2,2,1,4,105,1,1,2,NA,NA,1,1,1,10,690,0.50541,NA,1,0
2,2,2,1,4,106,2,3,4,NA,NA,3,3,1,10,700,1.1811,NA,1,0
2,2,2,1,4,107,1,1,2,NA,NA,1,1,1,10,710,0.27853,NA,1,0
2,2,2,1,4,108,2,3,4,NA,NA,3,3,1,10,720,0.24453,NA,1,0
2,2,2,1,4,109,1,1,2,NA,NA,1,1,1,10,730,0.33209,NA,1,0
2,2,2,1,4,110,2,3,4,NA,NA,3,3,0,0,730,0.22436,NA,1,0
2,2,2,1,4,111,1,1,2,NA,NA,1,1,1,10,740,0.26673,NA,1,0
2,2,2,1,4,112,2,3,4,NA,NA,3,3,1,10,750,0.39116,NA,1,0
2,2,2,1,4,113,1,1,2,NA,NA,1,1,1,10,760,0.51222,NA,1,0
2,2,2,1,4,114,2,3,4,NA,NA,3,3,1,10,770,0.42834,NA,1,0
2,2,2,1,4,115,2,3,4,NA,NA,3,3,1,10,780,0.69275,NA,1,0
2,2,2,1,4,116,1,1,2,NA,NA,1,1,1,10,790,0.41803,NA,1,0
2,2,2,1,4,117,1,1,2,NA,NA,1,1,0,0,790,0.76267,NA,1,0
2,2,2,1,4,118,2,3,4,NA,NA,3,3,1,10,800,0.43657,NA,1,0
2,2,2,1,4,119,2,3,4,NA,NA,3,3,1,10,810,0.70771,NA,1,0
2,2,2,1,4,120,1,1,2,NA,NA,1,1,0,0,810,0.73653,NA,1,0
2,2,2,1,5,121,1,1,2,NA,NA,1,1,1,10,820,0.80447,NA,1,0
2,2,2,1,5,122,2,4,3,NA,NA,3,3,1,10,830,0.57118,NA,1,0
2,2,2,1,5,123,1,1,2,NA,NA,1,1,1,10,840,0.37386,NA,1,0
2,2,2,1,5,124,1,1,2,NA,NA,1,1,1,10,850,0.73637,NA,1,0
2,2,2,1,5,125,2,4,3,NA,NA,3,3,1,10,860,1.0833,NA,1,0
2,2,2,1,5,126,2,4,3,NA,NA,3,3,0,0,860,0.70397,NA,1,0
2,2,2,1,5,127,2,4,3,NA,NA,3,3,1,10,870,0.28524,NA,1,0
2,2,2,1,5,128,1,1,2,NA,NA,1,1,1,10,880,1.0183,NA,1,0
2,2,2,1,5,129,2,4,3,NA,NA,3,3,1,10,890,0.58535,NA,1,0
2,2,2,1,5,130,1,1,2,NA,NA,1,1,0,0,890,0.52308,NA,1,0
2,2,2,1,5,131,2,4,3,NA,NA,3,3,1,10,900,0.21478,NA,1,0
2,2,2,1,5,132,2,4,3,NA,NA,3,3,1,10,910,0.76547,NA,1,0
2,2,2,1,5,133,2,4,3,NA,NA,3,3,1,10,920,0.24796,NA,1,0
2,2,2,1,5,134,1,1,2,NA,NA,1,1,0,0,920,0.64663,NA,1,0
2,2,2,1,5,135,2,4,3,NA,NA,3,3,1,10,930,0.22894,NA,1,0
2,2,2,1,5,136,2,4,3,NA,NA,3,3,1,10,940,0.42986,NA,1,0
2,2,2,1,5,137,2,4,3,NA,NA,3,3,0,0,940,0.2997,NA,1,0
2,2,2,1,5,138,1,1,2,NA,NA,1,1,0,0,940,2.1376,NA,1,0
2,2,2,1,5,139,2,4,3,NA,NA,3,3,1,10,950,0.24366,NA,1,0
2,2,2,1,5,140,1,1,2,NA,NA,1,1,1,10,960,0.31496,NA,1,0
2,2,2,1,5,141,1,1,2,NA,NA,1,1,1,10,970,0.80735,NA,1,0
2,2,2,1,5,142,1,1,2,NA,NA,1,1,1,10,980,0.71182,NA,1,0
2,2,2,1,5,143,2,4,3,NA,NA,3,3,1,10,990,0.32434,NA,1,0
2,2,2,1,5,144,1,1,2,NA,NA,1,1,0,0,990,0.55235,NA,1,0
2,2,2,1,5,145,2,4,3,NA,NA,3,3,1,10,1000,0.26732,NA,1,0
2,2,2,1,5,146,1,1,2,NA,NA,1,1,1,10,1010,0.97799,NA,1,0
2,2,2,1,5,147,1,1,2,NA,NA,1,1,0,0,1010,0.80295,NA,1,0
2,2,2,1,5,148,1,1,2,NA,NA,1,1,0,0,1010,0.62768,NA,1,0
2,2,2,1,5,149,1,1,2,NA,NA,2,2,1,10,1020,0.34057,NA,0,0
2,2,2,1,5,150,2,4,3,NA,NA,3,3,1,10,1030,0.68366,NA,1,0
2,2,2,2,1,1,4,1,4,NA,NA,1,1,0,0,1030,3.8547,NA,1,0
2,2,2,2,1,2,5,3,2,NA,NA,3,3,1,10,1040,0.75458,NA,1,0
2,2,2,2,1,3,3,3,1,NA,NA,3,3,1,10,1050,0.92531,NA,1,0
2,2,2,2,1,4,1,2,1,NA,NA,1,1,1,10,1060,1.1923,NA,1,0
2,2,2,2,1,5,6,2,4,NA,NA,2,2,0,0,1060,2.1701,NA,1,0
2,2,2,2,1,6,2,4,3,NA,NA,3,3,1,10,1070,1.0502,NA,1,0
2,2,2,2,1,7,6,4,2,NA,NA,2,2,0,0,1070,1.3923,NA,1,0
2,2,2,2,1,8,4,4,1,NA,NA,1,1,1,10,1080,5.288,NA,1,0
2,2,2,2,1,9,1,1,2,NA,NA,1,1,1,10,1090,1.1686,NA,1,0
2,2,2,2,1,10,5,2,3,NA,NA,3,3,1,10,1100,0.75416,NA,1,0
2,2,2,2,1,11,2,3,4,NA,NA,3,3,0,0,1100,0.64463,NA,1,0
2,2,2,2,1,12,3,1,3,NA,NA,3,3,1,10,1110,1.0367,NA,1,0
2,2,2,2,2,13,1,1,2,NA,NA,1,1,0,0,1110,4.4738,NA,1,0
2,2,2,2,2,14,3,1,3,NA,NA,3,3,0,0,1110,2.2845,NA,1,0
2,2,2,2,2,15,2,4,3,NA,NA,3,3,1,10,1120,0.66378,NA,1,0
2,2,2,2,2,16,6,2,4,NA,NA,2,2,0,0,1120,0.99795,NA,1,0
2,2,2,2,2,17,4,1,4,NA,NA,1,1,1,10,1130,0.88639,NA,1,0
2,2,2,2,2,18,2,3,4,NA,NA,3,3,1,10,1140,0.7631,NA,1,0
2,2,2,2,2,19,3,3,1,NA,NA,3,3,0,0,1140,1.1254,NA,1,0
2,2,2,2,2,20,5,2,3,NA,NA,3,3,1,10,1150,0.82445,NA,1,0
2,2,2,2,2,21,6,4,2,NA,NA,2,2,1,10,1160,6.5772,NA,1,0
2,2,2,2,2,22,5,3,2,NA,NA,3,3,1,10,1170,0.70027,NA,1,0
2,2,2,2,2,23,4,4,1,NA,NA,1,1,1,10,1180,1.0082,NA,1,0
2,2,2,2,2,24,1,2,1,NA,NA,1,1,0,0,1180,8.3214,NA,1,0
2,2,2,2,3,25,5,2,3,NA,NA,3,3,1,10,1190,0.718,NA,1,0
2,2,2,2,3,26,3,1,3,NA,NA,3,3,1,10,1200,3.233,NA,1,0
2,2,2,2,3,27,5,3,2,NA,NA,3,3,1,10,1210,3.0865,NA,1,0
2,2,2,2,3,28,6,4,2,NA,NA,2,2,0,0,1210,1.4983,NA,1,0
2,2,2,2,3,29,3,3,1,NA,NA,3,3,1,10,1220,0.60588,NA,1,0
2,2,2,2,3,30,2,4,3,NA,NA,3,3,1,10,1230,0.8382,NA,1,0
2,2,2,2,3,31,4,4,1,NA,NA,1,1,0,0,1230,1.3978,NA,1,0
2,2,2,2,3,32,2,3,4,NA,NA,3,3,0,0,1230,0.65316,NA,1,0
2,2,2,2,3,33,6,2,4,NA,NA,2,2,1,10,1240,2.5326,NA,1,0
2,2,2,2,3,34,4,1,4,NA,NA,1,1,1,10,1250,1.0542,NA,1,0
2,2,2,2,3,35,1,1,2,NA,NA,1,1,0,0,1250,0.90769,NA,1,0
2,2,2,2,3,36,1,2,1,NA,NA,1,1,0,0,1250,0.64819,NA,1,0
2,2,2,2,4,37,5,2,3,NA,NA,3,3,1,10,1260,0.7986,NA,1,0
2,2,2,2,4,38,2,3,4,NA,NA,3,3,1,10,1270,0.60736,NA,1,0
2,2,2,2,4,39,6,2,4,NA,NA,2,2,0,0,1270,3.3038,NA,1,0
2,2,2,2,4,40,4,1,4,NA,NA,1,1,0,0,1270,0.72238,NA,1,0
2,2,2,2,4,41,2,4,3,NA,NA,3,3,1,10,1280,0.59689,NA,1,0
2,2,2,2,4,42,3,3,1,NA,NA,3,3,1,10,1290,1.918,NA,1,0
2,2,2,2,4,43,1,2,1,NA,NA,1,1,0,0,1290,0.72907,NA,1,0
2,2,2,2,4,44,1,1,2,NA,NA,1,1,1,10,1300,0.68368,NA,1,0
2,2,2,2,4,45,5,3,2,NA,NA,3,3,1,10,1310,0.44935,NA,1,0
2,2,2,2,4,46,3,1,3,NA,NA,3,3,1,10,1320,0.96039,NA,1,0
2,2,2,2,4,47,4,4,1,NA,NA,1,1,0,0,1320,1.0261,NA,1,0
2,2,2,2,4,48,6,4,2,NA,NA,2,2,0,0,1320,0.65076,NA,1,0
2,2,2,2,5,49,4,1,4,NA,NA,1,1,1,10,1330,1.2965,NA,1,0
2,2,2,2,5,50,6,4,2,NA,NA,2,2,0,0,1330,1.236,NA,1,0
2,2,2,2,5,51,2,4,3,NA,NA,3,3,1,10,1340,0.43442,NA,1,0
2,2,2,2,5,52,1,2,1,NA,NA,1,1,1,10,1350,0.66645,NA,1,0
2,2,2,2,5,53,5,3,2,NA,NA,3,3,1,10,1360,0.39552,NA,1,0
2,2,2,2,5,54,6,2,4,NA,NA,2,2,0,0,1360,0.85256,NA,1,0
2,2,2,2,5,55,2,3,4,NA,NA,3,3,1,10,1370,0.41847,NA,1,0
2,2,2,2,5,56,5,2,3,NA,NA,3,3,1,10,1380,1.2032,NA,1,0
2,2,2,2,5,57,3,3,1,NA,NA,3,3,1,10,1390,0.37942,NA,1,0
2,2,2,2,5,58,4,4,1,NA,NA,1,1,1,10,1400,0.66869,NA,1,0
2,2,2,2,5,59,1,1,2,NA,NA,1,1,1,10,1410,0.63346,NA,1,0
2,2,2,2,5,60,3,1,3,NA,NA,3,3,1,10,1420,0.88218,NA,1,0
2,2,2,2,6,61,6,4,2,NA,NA,2,2,1,10,1430,0.71094,NA,1,0
2,2,2,2,6,62,2,3,4,NA,NA,3,3,1,10,1440,0.95533,NA,1,0
2,2,2,2,6,63,6,2,4,NA,NA,2,2,0,0,1440,0.76574,NA,1,0
2,2,2,2,6,64,5,3,2,NA,NA,3,3,0,0,1440,0.51902,NA,1,0
2,2,2,2,6,65,3,3,1,NA,NA,3,3,1,10,1450,4.3158,NA,1,0
2,2,2,2,6,66,4,1,4,NA,NA,1,1,1,10,1460,0.70859,NA,1,0
2,2,2,2,6,67,1,2,1,NA,NA,1,1,1,10,1470,1.1457,NA,1,0
2,2,2,2,6,68,1,1,2,NA,NA,2,2,0,0,1470,1.2444,NA,0,0
2,2,2,2,6,69,2,4,3,NA,NA,3,3,1,10,1480,0.71507,NA,1,0
2,2,2,2,6,70,5,2,3,NA,NA,3,3,1,10,1490,0.76646,NA,1,0
2,2,2,2,6,71,3,1,3,NA,NA,3,3,1,10,1500,0.36713,NA,1,0
2,2,2,2,6,72,4,4,1,NA,NA,1,1,0,0,1500,0.77074,NA,1,0
2,2,2,2,7,73,2,4,3,NA,NA,3,3,1,10,1510,0.78055,NA,1,0
2,2,2,2,7,74,1,2,1,NA,NA,1,1,0,0,1510,0.83721,NA,1,0
2,2,2,2,7,75,6,2,4,NA,NA,2,2,1,10,1520,2.8611,NA,1,0
2,2,2,2,7,76,3,1,3,NA,NA,3,3,0,0,1520,1.0896,NA,1,0
2,2,2,2,7,77,5,3,2,NA,NA,3,3,1,10,1530,0.92669,NA,1,0
2,2,2,2,7,78,4,4,1,NA,NA,1,1,0,0,1530,0.83434,NA,1,0
2,2,2,2,7,79,4,1,4,NA,NA,1,1,1,10,1540,0.6884,NA,1,0
2,2,2,2,7,80,3,3,1,NA,NA,3,3,0,0,1540,0.37364,NA,1,0
2,2,2,2,7,81,6,4,2,NA,NA,2,2,0,0,1540,1.1438,NA,1,0
2,2,2,2,7,82,1,1,2,NA,NA,1,1,1,10,1550,0.81031,NA,1,0
2,2,2,2,7,83,2,3,4,NA,NA,3,3,1,10,1560,0.82765,NA,1,0
2,2,2,2,7,84,5,2,3,NA,NA,3,3,1,10,1570,1.4027,NA,1,0
2,2,2,2,8,85,2,3,4,NA,NA,3,3,1,10,1580,1.2193,NA,1,0
2,2,2,2,8,86,1,2,1,NA,NA,1,1,1,10,1590,1.1701,NA,1,0
2,2,2,2,8,87,1,1,2,NA,NA,1,1,0,0,1590,0.63557,NA,1,0
2,2,2,2,8,88,6,2,4,NA,NA,2,2,1,10,1600,1.1076,NA,1,0
2,2,2,2,8,89,3,3,1,NA,NA,3,3,1,10,1610,0.36725,NA,1,0
2,2,2,2,8,90,4,4,1,NA,NA,1,1,0,0,1610,0.72992,NA,1,0
2,2,2,2,8,91,4,1,4,NA,NA,1,1,1,10,1620,0.85257,NA,1,0
2,2,2,2,8,92,6,4,2,NA,NA,2,2,0,0,1620,1.0115,NA,1,0
2,2,2,2,8,93,5,3,2,NA,NA,3,3,1,10,1630,0.53159,NA,1,0
2,2,2,2,8,94,5,2,3,NA,NA,3,3,1,10,1640,0.65516,NA,1,0
2,2,2,2,8,95,2,4,3,NA,NA,3,3,1,10,1650,0.41735,NA,1,0
2,2,2,2,8,96,3,1,3,NA,NA,3,3,1,10,1660,0.71781,NA,1,0
2,2,2,2,9,97,1,1,2,NA,NA,1,1,1,10,1670,0.91333,NA,1,0
2,2,2,2,9,98,3,1,3,NA,NA,3,3,1,10,1680,0.63809,NA,1,0
2,2,2,2,9,99,5,2,3,NA,NA,3,3,1,10,1690,0.51685,NA,1,0
2,2,2,2,9,100,2,4,3,NA,NA,3,3,0,0,1690,0.66742,NA,1,0
2,2,2,2,9,101,2,3,4,NA,NA,3,3,1,10,1700,0.33357,NA,1,0
2,2,2,2,9,102,1,2,1,NA,NA,1,1,0,0,1700,0.80926,NA,1,0
2,2,2,2,9,103,4,4,1,NA,NA,1,1,1,10,1710,0.82623,NA,1,0
2,2,2,2,9,104,4,1,4,NA,NA,1,1,1,10,1720,0.61865,NA,1,0
2,2,2,2,9,105,5,3,2,NA,NA,3,3,1,10,1730,0.4101,NA,1,0
2,2,2,2,9,106,6,4,2,NA,NA,2,2,0,0,1730,0.81067,NA,1,0
2,2,2,2,9,107,6,2,4,NA,NA,2,2,0,0,1730,0.53996,NA,1,0
2,2,2,2,9,108,3,3,1,NA,NA,3,3,0,0,1730,0.75047,NA,1,0
2,2,2,2,10,109,5,3,2,NA,NA,3,3,1,10,1740,0.74649,NA,1,0
2,2,2,2,10,110,1,2,1,NA,NA,1,1,1,10,1750,0.52389,NA,1,0
2,2,2,2,10,111,5,2,3,NA,NA,3,3,0,0,1750,0.69634,NA,1,0
2,2,2,2,10,112,4,4,1,NA,NA,1,1,0,0,1750,0.90856,NA,1,0
2,2,2,2,10,113,3,3,1,NA,NA,3,3,0,0,1750,0.42539,NA,1,0
2,2,2,2,10,114,6,2,4,NA,NA,2,2,0,0,1750,0.96997,NA,1,0
2,2,2,2,10,115,6,4,2,NA,NA,2,2,1,10,1760,0.691,NA,1,0
2,2,2,2,10,116,4,1,4,NA,NA,1,1,1,10,1770,0.88818,NA,1,0
2,2,2,2,10,117,1,1,2,NA,NA,1,1,0,0,1770,0.7331,NA,1,0
2,2,2,2,10,118,3,1,3,NA,NA,3,3,1,10,1780,1.2326,NA,1,0
2,2,2,2,10,119,2,3,4,NA,NA,3,3,1,10,1790,0.64696,NA,1,0
2,2,2,2,10,120,2,4,3,NA,NA,3,3,1,10,1800,0.66896,NA,1,0
2,2,2,3,1,1,7,3,2,1,4,3,3,1,10,1810,0.91683,NA,NA,0
2,2,2,3,1,2,7,2,4,1,3,3,3,1,10,1820,0.0003039,NA,NA,0
2,2,2,3,1,3,7,4,3,1,2,3,3,1,10,1830,0.026443,NA,NA,0
2,2,2,3,1,4,7,4,2,1,3,3,3,1,10,1840,0.0002667,NA,NA,0
2,2,2,3,1,5,7,4,2,1,3,3,3,0,0,1840,0.0002633,NA,NA,0
2,2,2,3,1,6,7,3,1,4,2,3,3,1,10,1850,0.085011,NA,NA,0
2,2,2,3,1,7,7,2,4,1,3,3,3,1,10,1860,0.002574,NA,NA,0
2,2,2,3,1,8,7,2,1,4,3,3,3,1,10,1870,0.0002642,NA,NA,0
2,2,2,3,1,9,7,4,2,1,3,3,3,1,10,1880,0.0003285,NA,NA,0
2,2,2,3,1,10,7,3,1,4,2,3,3,0,0,1880,0.063193,NA,NA,0
2,2,2,3,1,11,7,1,2,3,4,3,3,0,0,1880,0.0002668,NA,NA,0
2,2,2,3,1,12,7,2,1,4,3,3,3,1,10,1890,0.046555,NA,NA,0
2,2,2,3,1,13,7,4,2,3,1,3,3,1,10,1900,0.0002623,NA,NA,0
2,2,2,3,1,14,7,3,2,1,4,3,3,1,10,1910,0.0001644,NA,NA,0
2,2,2,3,1,15,7,1,4,2,3,3,3,1,10,1920,0.01632,NA,NA,0
2,2,2,3,1,16,7,3,4,2,1,3,3,1,10,1930,0.05699,NA,NA,0
2,2,2,3,1,17,7,4,2,1,3,3,3,1,10,1940,0.0002709,NA,NA,0
2,2,2,3,1,18,7,2,3,1,4,3,3,1,10,1950,0.0002651,NA,NA,0
2,2,2,3,1,19,7,3,2,1,4,3,3,1,10,1960,0.042597,NA,NA,0
2,2,2,3,1,20,7,1,4,3,2,3,3,0,0,1960,0.0001607,NA,NA,0
2,2,2,4,1,1,1,1,NA,NA,NA,NA,NA,NA,NA,NA,NA,70.1667,NA,0
2,2,2,4,1,2,2,2,NA,NA,NA,NA,NA,NA,NA,NA,NA,50,NA,0
2,2,2,4,1,3,3,3,NA,NA,NA,NA,NA,NA,NA,NA,NA,99.6667,NA,0
2,2,2,4,1,4,4,4,NA,NA,NA,NA,NA,NA,NA,NA,NA,0.5,NA,0
3,3,2,1,1,1,2,3,4,NA,NA,3,3,1,10,10,2.637,NA,1,0
3,3,2,1,1,2,1,2,1,NA,NA,2,2,0,0,10,1.8092,NA,0,0
3,3,2,1,1,3,1,1,2,NA,NA,1,1,0,0,10,1.1215,NA,1,0
3,3,2,1,1,4,2,3,4,NA,NA,3,3,1,10,20,1.5325,NA,1,0
3,3,2,1,1,5,2,4,3,NA,NA,3,3,1,10,30,0.87867,NA,1,0
3,3,2,1,1,6,1,1,2,NA,NA,2,2,1,10,40,1.5564,NA,0,0
3,3,2,1,1,7,1,2,1,NA,NA,1,1,1,10,50,1.5178,NA,1,0
3,3,2,1,1,8,1,1,2,NA,NA,2,2,0,0,50,1.09,NA,0,0
3,3,2,1,1,9,2,3,4,NA,NA,3,3,1,10,60,1.15,NA,1,0
3,3,2,1,1,10,1,2,1,NA,NA,2,2,0,0,60,0.63337,NA,0,0
3,3,2,1,1,11,1,2,1,NA,NA,1,1,1,10,70,1.7436,NA,1,0
3,3,2,1,1,12,2,4,3,NA,NA,3,3,1,10,80,0.7284,NA,1,0
3,3,2,1,1,13,1,2,1,NA,NA,2,2,0,0,80,0.53989,NA,0,0
3,3,2,1,1,14,1,1,2,NA,NA,1,1,0,0,80,1.4629,NA,1,0
3,3,2,1,1,15,2,4,3,NA,NA,3,3,1,10,90,4.4692,NA,1,0
3,3,2,1,1,16,2,4,3,NA,NA,3,3,1,10,100,0.92704,NA,1,0
3,3,2,1,1,17,1,2,1,NA,NA,1,1,1,10,110,0.52307,NA,1,0
3,3,2,1,1,18,1,2,1,NA,NA,1,1,1,10,120,0.37476,NA,1,0
3,3,2,1,1,19,1,1,2,NA,NA,2,2,0,0,120,0.81768,NA,0,0
3,3,2,1,1,20,2,3,4,NA,NA,3,3,1,10,130,0.92089,NA,1,0
3,3,2,1,1,21,1,2,1,NA,NA,2,2,1,10,140,1.3009,NA,0,0
3,3,2,1,1,22,1,1,2,NA,NA,2,2,0,0,140,1.0006,NA,0,0
3,3,2,1,1,23,2,3,4,NA,NA,3,3,1,10,150,1.1777,NA,1,0
3,3,2,1,1,24,1,1,2,NA,NA,2,2,0,0,150,0.77914,NA,0,0
3,3,2,1,1,25,1,1,2,NA,NA,1,1,1,10,160,0.79655,NA,1,0
3,3,2,1,1,26,1,1,2,NA,NA,2,2,0,0,160,0.93357,NA,0,0
3,3,2,1,1,27,2,4,3,NA,NA,3,3,1,10,170,0.8798,NA,1,0
3,3,2,1,1,28,1,2,1,NA,NA,1,1,0,0,170,0.55752,NA,1,0
3,3,2,1,1,29,1,2,1,NA,NA,2,2,1,10,180,0.41669,NA,0,0
3,3,2,1,1,30,1,1,2,NA,NA,2,2,0,0,180,0.31203,NA,0,0
3,3,2,1,2,31,2,3,4,NA,NA,3,3,1,10,190,2.7323,NA,1,0
3,3,2,1,2,32,2,4,3,NA,NA,3,3,1,10,200,0.78099,NA,1,0
3,3,2,1,2,33,1,2,1,NA,NA,1,1,0,0,200,0.97427,NA,1,0
3,3,2,1,2,34,1,2,1,NA,NA,2,2,0,0,200,0.55091,NA,0,0
3,3,2,1,2,35,1,2,1,NA,NA,2,2,0,0,200,0.4258,NA,0,0
3,3,2,1,2,36,1,1,2,NA,NA,1,1,1,10,210,0.48228,NA,1,0
3,3,2,1,2,37,1,1,2,NA,NA,1,1,1,10,220,0.61685,NA,1,0
3,3,2,1,2,38,1,2,1,NA,NA,1,1,1,10,230,0.41629,NA,1,0
3,3,2,1,2,39,1,1,2,NA,NA,1,1,1,10,240,0.37554,NA,1,0
3,3,2,1,2,40,1,2,1,NA,NA,1,1,1,10,250,0.29844,NA,1,0
3,3,2,1,2,41,1,1,2,NA,NA,1,1,0,0,250,0.3006,NA,1,0
3,3,2,1,2,42,1,2,1,NA,NA,2,2,0,0,250,0.54724,NA,0,0
3,3,2,1,2,43,1,2,1,NA,NA,1,1,1,10,260,0.42193,NA,1,0
3,3,2,1,2,44,1,1,2,NA,NA,1,1,1,10,270,0.25005,NA,1,0
3,3,2,1,2,45,2,4,3,NA,NA,3,3,0,0,270,0.78053,NA,1,0
3,3,2,1,2,46,1,1,2,NA,NA,2,2,1,10,280,0.76567,NA,0,0
3,3,2,1,2,47,2,3,4,NA,NA,3,3,1,10,290,0.82293,NA,1,0
3,3,2,1,2,48,2,3,4,NA,NA,3,3,0,0,290,0.33521,NA,1,0
3,3,2,1,2,49,2,4,3,NA,NA,3,3,0,0,290,1.0356,NA,1,0
3,3,2,1,2,50,2,4,3,NA,NA,3,3,0,0,290,0.47434,NA,1,0
3,3,2,1,2,51,2,4,3,NA,NA,4,4,0,0,290,0.54448,NA,0,0
3,3,2,1,2,52,1,2,1,NA,NA,2,2,1,10,300,1.2353,NA,0,0
3,3,2,1,2,53,1,2,1,NA,NA,2,2,0,0,300,0.31637,NA,0,0
3,3,2,1,2,54,1,1,2,NA,NA,1,1,1,10,310,0.28632,NA,1,0
3,3,2,1,2,55,1,1,2,NA,NA,1,1,1,10,320,0.30028,NA,1,0
3,3,2,1,2,56,1,1,2,NA,NA,1,1,0,0,320,0.31658,NA,1,0
3,3,2,1,2,57,2,3,4,NA,NA,3,3,1,10,330,0.75786,NA,1,0
3,3,2,1,2,58,2,3,4,NA,NA,3,3,1,10,340,0.28326,NA,1,0
3,3,2,1,2,59,1,1,2,NA,NA,2,2,1,10,350,0.68629,NA,0,0
3,3,2,1,2,60,1,2,1,NA,NA,2,2,0,0,350,0.48377,NA,0,0
3,3,2,1,3,61,2,3,4,NA,NA,3,3,1,10,360,0.56038,NA,1,0
3,3,2,1,3,62,1,1,2,NA,NA,1,1,1,10,370,0.53121,NA,1,0
3,3,2,1,3,63,1,2,1,NA,NA,1,1,1,10,380,0.35,NA,1,0
3,3,2,1,3,64,1,2,1,NA,NA,1,1,1,10,390,0.3169,NA,1,0
3,3,2,1,3,65,1,2,1,NA,NA,1,1,1,10,400,0.28378,NA,1,0
3,3,2,1,3,66,2,4,3,NA,NA,3,3,0,0,400,0.73717,NA,1,0
3,3,2,1,3,67,2,3,4,NA,NA,3,3,1,10,410,0.70117,NA,1,0
3,3,2,1,3,68,1,2,1,NA,NA,2,2,1,10,420,0.5693,NA,0,0
3,3,2,1,3,69,1,1,2,NA,NA,2,2,0,0,420,0.38794,NA,0,0
3,3,2,1,3,70,1,2,1,NA,NA,1,1,1,10,430,0.26111,NA,1,0
3,3,2,1,3,71,1,2,1,NA,NA,1,1,1,10,440,0.26602,NA,1,0
3,3,2,1,3,72,1,1,2,NA,NA,1,1,0,0,440,0.26702,NA,1,0
3,3,2,1,3,73,2,3,4,NA,NA,3,3,0,0,440,0.90023,NA,1,0
3,3,2,1,3,74,2,4,3,NA,NA,4,4,0,0,440,0.38418,NA,0,0
3,3,2,1,3,75,2,4,3,NA,NA,3,3,0,0,440,0.5141,NA,1,0
3,3,2,1,3,76,2,4,3,NA,NA,3,3,1,10,450,0.28662,NA,1,0
3,3,2,1,3,77,1,1,2,NA,NA,2,2,0,0,450,0.756,NA,0,0
3,3,2,1,3,78,1,1,2,NA,NA,1,1,0,0,450,0.267,NA,1,0
3,3,2,1,3,79,1,1,2,NA,NA,1,1,1,10,460,0.25293,NA,1,0
3,3,2,1,3,80,2,4,3,NA,NA,3,3,1,10,470,1.4916,NA,1,0
3,3,2,1,3,81,1,1,2,NA,NA,1,1,1,10,480,1.0161,NA,1,0
3,3,2,1,3,82,2,3,4,NA,NA,3,3,1,10,490,0.87155,NA,1,0
3,3,2,1,3,83,1,2,1,NA,NA,2,2,0,0,490,0.96478,NA,0,0
3,3,2,1,3,84,1,1,2,NA,NA,1,1,1,10,500,0.33353,NA,1,0
3,3,2,1,3,85,1,1,2,NA,NA,1,1,1,10,510,0.28243,NA,1,0
3,3,2,1,3,86,1,2,1,NA,NA,1,1,1,10,520,0.24986,NA,1,0
3,3,2,1,3,87,1,2,1,NA,NA,1,1,0,0,520,0.28314,NA,1,0
3,3,2,1,3,88,1,1,2,NA,NA,2,2,0,0,520,0.47584,NA,0,0
3,3,2,1,3,89,2,3,4,NA,NA,3,3,1,10,530,0.8021,NA,1,0
3,3,2,1,3,90,1,2,1,NA,NA,2,2,1,10,540,0.63483,NA,0,0
3,3,2,1,4,91,1,2,1,NA,NA,2,2,0,0,540,0.30012,NA,0,0
3,3,2,1,4,92,1,1,2,NA,NA,1,1,1,10,550,0.3667,NA,1,0
3,3,2,1,4,93,2,3,4,NA,NA,3,3,1,10,560,1.1046,NA,1,0
3,3,2,1,4,94,1,1,2,NA,NA,1,1,1,10,570,1.2448,NA,1,0
3,3,2,1,4,95,2,4,3,NA,NA,4,4,0,0,570,1.4594,NA,0,0
3,3,2,1,4,96,2,4,3,NA,NA,3,3,0,0,570,0.6494,NA,1,0
3,3,2,1,4,97,1,2,1,NA,NA,2,2,0,0,570,0.59944,NA,0,0
3,3,2,1,4,98,2,4,3,NA,NA,3,3,1,10,580,0.85627,NA,1,0
3,3,2,1,4,99,1,1,2,NA,NA,1,1,0,0,580,1.9033,NA,1,0
3,3,2,1,4,100,1,2,1,NA,NA,1,1,1,10,590,0.29084,NA,1,0
3,3,2,1,4,101,2,3,4,NA,NA,4,4,0,0,590,1.5763,NA,0,0
3,3,2,1,4,102,2,3,4,NA,NA,3,3,1,10,600,0.25734,NA,1,0
3,3,2,1,4,103,1,2,1,NA,NA,2,2,1,10,610,1.4323,NA,0,0
3,3,2,1,4,104,1,2,1,NA,NA,1,1,1,10,620,0.2952,NA,1,0
3,3,2,1,4,105,1,1,2,NA,NA,1,1,1,10,630,0.31709,NA,1,0
3,3,2,1,4,106,1,1,2,NA,NA,1,1,1,10,640,0.24892,NA,1,0
3,3,2,1,4,107,1,2,1,NA,NA,1,1,1,10,650,0.29967,NA,1,0
3,3,2,1,4,108,2,4,3,NA,NA,4,4,0,0,650,2.0934,NA,0,0
3,3,2,1,4,109,1,2,1,NA,NA,2,2,1,10,660,1.6409,NA,0,0
3,3,2,1,4,110,1,1,2,NA,NA,1,1,0,0,660,0.51172,NA,1,0
3,3,2,1,4,111,1,1,2,NA,NA,1,1,0,0,660,0.38361,NA,1,0
3,3,2,1,4,112,1,1,2,NA,NA,2,2,0,0,660,0.84693,NA,0,0
3,3,2,1,4,113,1,1,2,NA,NA,1,1,1,10,670,0.253,NA,1,0
3,3,2,1,4,114,2,3,4,NA,NA,3,3,0,0,670,1.3962,NA,1,0
3,3,2,1,4,115,1,1,2,NA,NA,2,2,0,0,670,1.133,NA,0,0
3,3,2,1,4,116,2,3,4,NA,NA,3,3,1,10,680,0.86753,NA,1,0
3,3,2,1,4,117,1,2,1,NA,NA,2,2,1,10,690,0.53733,NA,0,0
3,3,2,1,4,118,2,4,3,NA,NA,4,4,0,0,690,0.58812,NA,0,0
3,3,2,1,4,119,1,2,1,NA,NA,2,2,0,0,690,0.6039,NA,0,0
3,3,2,1,4,120,1,2,1,NA,NA,2,2,0,0,690,0.58894,NA,0,0
3,3,2,1,5,121,2,4,3,NA,NA,3,3,1,10,700,1.5638,NA,1,0
3,3,2,1,5,122,1,2,1,NA,NA,2,2,1,10,710,0.50954,NA,0,0
3,3,2,1,5,123,1,1,2,NA,NA,2,2,1,10,720,0.30639,NA,0,0
3,3,2,1,5,124,1,1,2,NA,NA,1,1,1,10,730,0.55889,NA,1,0
3,3,2,1,5,125,2,3,4,NA,NA,3,3,1,10,740,1.0652,NA,1,0
3,3,2,1,5,126,1,1,2,NA,NA,1,1,1,10,750,0.36716,NA,1,0
3,3,2,1,5,127,1,2,1,NA,NA,1,1,1,10,760,0.35253,NA,1,0
3,3,2,1,5,128,1,1,2,NA,NA,2,2,0,0,760,0.2833,NA,0,0
3,3,2,1,5,129,1,1,2,NA,NA,1,1,0,0,760,0.31351,NA,1,0
3,3,2,1,5,130,2,4,3,NA,NA,3,3,1,10,770,0.58136,NA,1,0
3,3,2,1,5,131,1,2,1,NA,NA,2,2,0,0,770,0.31087,NA,0,0
3,3,2,1,5,132,2,4,3,NA,NA,3,3,1,10,780,0.70768,NA,1,0
3,3,2,1,5,133,2,4,3,NA,NA,3,3,1,10,790,1.2485,NA,1,0
3,3,2,1,5,134,1,2,1,NA,NA,2,2,0,0,790,0.56663,NA,0,0
3,3,2,1,5,135,1,2,1,NA,NA,1,1,1,10,800,0.26695,NA,1,0
3,3,2,1,5,136,2,3,4,NA,NA,3,3,1,10,810,1.0156,NA,1,0
3,3,2,1,5,137,1,2,1,NA,NA,2,2,1,10,820,0.35773,NA,0,0
3,3,2,1,5,138,1,2,1,NA,NA,2,2,0,0,820,0.29991,NA,0,0
3,3,2,1,5,139,1,1,2,NA,NA,1,1,1,10,830,0.26985,NA,1,0
3,3,2,1,5,140,2,3,4,NA,NA,3,3,1,10,840,0.67677,NA,1,0
3,3,2,1,5,141,2,3,4,NA,NA,3,3,1,10,850,0.7053,NA,1,0
3,3,2,1,5,142,2,3,4,NA,NA,3,3,1,10,860,0.69461,NA,1,0
3,3,2,1,5,143,1,1,2,NA,NA,1,1,1,10,870,0.62734,NA,1,0
3,3,2,1,5,144,1,1,2,NA,NA,2,2,0,0,870,0.30028,NA,0,0
3,3,2,1,5,145,1,1,2,NA,NA,1,1,1,10,880,0.30421,NA,1,0
3,3,2,1,5,146,2,4,3,NA,NA,3,3,0,0,880,0.79773,NA,1,0
3,3,2,1,5,147,1,2,1,NA,NA,1,1,1,10,890,0.52592,NA,1,0
3,3,2,1,5,148,1,1,2,NA,NA,1,1,1,10,900,0.31645,NA,1,0
3,3,2,1,5,149,1,2,1,NA,NA,1,1,1,10,910,0.30033,NA,1,0
3,3,2,1,5,150,1,2,1,NA,NA,1,1,1,10,920,0.28363,NA,1,0
3,3,2,2,1,1,2,3,4,NA,NA,3,3,0,0,920,1.878,NA,1,0
3,3,2,2,1,2,5,2,3,NA,NA,3,3,1,10,930,10.698,NA,1,0
3,3,2,2,1,3,5,3,2,NA,NA,2,2,1,10,940,1.7494,NA,0,0
3,3,2,2,1,4,3,1,3,NA,NA,3,3,0,0,940,1.6227,NA,1,0
3,3,2,2,1,5,1,1,2,NA,NA,1,1,1,10,950,0.28677,NA,1,0
3,3,2,2,1,6,1,2,1,NA,NA,2,2,0,0,950,0.33221,NA,0,0
3,3,2,2,1,7,6,4,2,NA,NA,2,2,1,10,960,2.5993,NA,1,0
3,3,2,2,1,8,4,1,4,NA,NA,1,1,1,10,970,0.74275,NA,1,0
3,3,2,2,1,9,3,3,1,NA,NA,3,3,1,10,980,0.87316,NA,1,0
3,3,2,2,1,10,6,2,4,NA,NA,2,2,0,0,980,2.7752,NA,1,0
3,3,2,2,1,11,4,4,1,NA,NA,4,4,0,0,980,0.64782,NA,0,0
3,3,2,2,1,12,2,4,3,NA,NA,3,3,1,10,990,1.1821,NA,1,0
3,3,2,2,2,13,3,1,3,NA,NA,3,3,1,10,1000,0.68643,NA,1,0
3,3,2,2,2,14,6,2,4,NA,NA,2,2,1,10,1010,0.66011,NA,1,0
3,3,2,2,2,15,5,3,2,NA,NA,3,3,0,0,1010,1.0827,NA,1,0
3,3,2,2,2,16,6,4,2,NA,NA,2,2,0,0,1010,0.30318,NA,1,0
3,3,2,2,2,17,3,3,1,NA,NA,3,3,1,10,1020,0.94821,NA,1,0
3,3,2,2,2,18,2,4,3,NA,NA,3,3,1,10,1030,0.99085,NA,1,0
3,3,2,2,2,19,4,4,1,NA,NA,1,1,0,0,1030,0.60771,NA,1,0
3,3,2,2,2,20,5,2,3,NA,NA,3,3,1,10,1040,0.62483,NA,1,0
3,3,2,2,2,21,4,1,4,NA,NA,4,4,0,0,1040,0.84133,NA,0,0
3,3,2,2,2,22,2,3,4,NA,NA,3,3,0,0,1040,0.47221,NA,1,0
3,3,2,2,2,23,1,1,2,NA,NA,1,1,0,0,1040,0.60549,NA,1,0
3,3,2,2,2,24,1,2,1,NA,NA,1,1,1,10,1050,1.7351,NA,1,0
3,3,2,2,3,25,1,2,1,NA,NA,1,1,1,10,1060,0.28909,NA,1,0
3,3,2,2,3,26,1,1,2,NA,NA,1,1,1,10,1070,0.53402,NA,1,0
3,3,2,2,3,27,3,3,1,NA,NA,1,1,1,10,1080,0.26707,NA,0,0
3,3,2,2,3,28,6,4,2,NA,NA,2,2,0,0,1080,0.75932,NA,1,0
3,3,2,2,3,29,2,3,4,NA,NA,4,4,1,10,1090,1.762,NA,0,0
3,3,2,2,3,30,4,1,4,NA,NA,1,1,0,0,1090,0.60363,NA,1,0
3,3,2,2,3,31,5,2,3,NA,NA,3,3,0,0,1090,0.45202,NA,1,0
3,3,2,2,3,32,2,4,3,NA,NA,3,3,0,0,1090,0.59446,NA,1,0
3,3,2,2,3,33,3,1,3,NA,NA,3,3,0,0,1090,0.65176,NA,1,0
3,3,2,2,3,34,5,3,2,NA,NA,2,2,0,0,1090,0.64148,NA,0,0
3,3,2,2,3,35,6,2,4,NA,NA,2,2,0,0,1090,0.36698,NA,1,0
3,3,2,2,3,36,4,4,1,NA,NA,1,1,1,10,1100,0.70612,NA,1,0
3,3,2,2,4,37,1,2,1,NA,NA,1,1,0,0,1100,0.80556,NA,1,0
3,3,2,2,4,38,4,4,1,NA,NA,1,1,0,0,1100,0.50267,NA,1,0
3,3,2,2,4,39,3,1,3,NA,NA,3,3,1,10,1110,0.63502,NA,1,0
3,3,2,2,4,40,4,1,4,NA,NA,1,1,0,0,1110,0.55479,NA,1,0
3,3,2,2,4,41,2,4,3,NA,NA,4,4,0,0,1110,0.86086,NA,0,0
3,3,2,2,4,42,6,4,2,NA,NA,2,2,0,0,1110,0.30806,NA,1,0
3,3,2,2,4,43,6,2,4,NA,NA,2,2,1,10,1120,0.57705,NA,1,0
3,3,2,2,4,44,3,3,1,NA,NA,3,3,1,10,1130,0.94001,NA,1,0
3,3,2,2,4,45,5,2,3,NA,NA,2,2,0,0,1130,0.67806,NA,0,0
3,3,2,2,4,46,5,3,2,NA,NA,3,3,0,0,1130,0.65985,NA,1,0
3,3,2,2,4,47,2,3,4,NA,NA,3,3,1,10,1140,0.51523,NA,1,0
3,3,2,2,4,48,1,1,2,NA,NA,2,2,0,0,1140,0.63944,NA,0,0
3,3,2,2,5,49,6,2,4,NA,NA,2,2,0,0,1140,0.47192,NA,1,0
3,3,2,2,5,50,5,2,3,NA,NA,2,2,0,0,1140,0.42192,NA,0,0
3,3,2,2,5,51,4,4,1,NA,NA,1,1,0,0,1140,0.61417,NA,1,0
3,3,2,2,5,52,4,1,4,NA,NA,1,1,1,10,1150,0.67021,NA,1,0
3,3,2,2,5,53,1,2,1,NA,NA,2,2,1,10,1160,0.52443,NA,0,0
3,3,2,2,5,54,1,1,2,NA,NA,2,2,0,0,1160,0.39265,NA,0,0
3,3,2,2,5,55,6,4,2,NA,NA,2,2,0,0,1160,0.5943,NA,1,0
3,3,2,2,5,56,3,1,3,NA,NA,1,1,1,10,1170,0.49178,NA,0,0
3,3,2,2,5,57,2,3,4,NA,NA,3,3,1,10,1180,0.53795,NA,1,0
3,3,2,2,5,58,3,3,1,NA,NA,3,3,0,0,1180,0.58144,NA,1,0
3,3,2,2,5,59,2,4,3,NA,NA,3,3,1,10,1190,0.87895,NA,1,0
3,3,2,2,5,60,5,3,2,NA,NA,3,3,1,10,1200,0.87578,NA,1,0
3,3,2,2,6,61,4,4,1,NA,NA,4,4,0,0,1200,0.61031,NA,0,0
3,3,2,2,6,62,1,2,1,NA,NA,1,1,1,10,1210,0.54651,NA,1,0
3,3,2,2,6,63,2,4,3,NA,NA,3,3,0,0,1210,0.57347,NA,1,0
3,3,2,2,6,64,6,4,2,NA,NA,2,2,0,0,1210,0.71957,NA,1,0
3,3,2,2,6,65,1,1,2,NA,NA,2,2,0,0,1210,0.65082,NA,0,0
3,3,2,2,6,66,3,1,3,NA,NA,1,1,0,0,1210,0.31523,NA,0,0
3,3,2,2,6,67,5,3,2,NA,NA,3,3,1,10,1220,0.64611,NA,1,0
3,3,2,2,6,68,2,3,4,NA,NA,4,4,0,0,1220,0.58946,NA,0,0
3,3,2,2,6,69,3,3,1,NA,NA,3,3,1,10,1230,0.34198,NA,1,0
3,3,2,2,6,70,4,1,4,NA,NA,1,1,1,10,1240,0.68234,NA,1,0
3,3,2,2,6,71,6,2,4,NA,NA,2,2,0,0,1240,0.52686,NA,1,0
3,3,2,2,6,72,5,2,3,NA,NA,2,2,0,0,1240,0.39563,NA,0,0
3,3,2,2,7,73,6,2,4,NA,NA,2,2,0,0,1240,0.51581,NA,1,0
3,3,2,2,7,74,3,3,1,NA,NA,3,3,1,10,1250,0.59963,NA,1,0
3,3,2,2,7,75,1,2,1,NA,NA,2,2,1,10,1260,0.81632,NA,0,0
3,3,2,2,7,76,2,3,4,NA,NA,3,3,1,10,1270,1.1682,NA,1,0
3,3,2,2,7,77,5,3,2,NA,NA,2,2,0,0,1270,0.50536,NA,0,0
3,3,2,2,7,78,1,1,2,NA,NA,2,2,1,10,1280,0.48606,NA,0,0
3,3,2,2,7,79,2,4,3,NA,NA,4,4,0,0,1280,1.3161,NA,0,0
3,3,2,2,7,80,4,1,4,NA,NA,1,1,1,10,1290,0.50364,NA,1,0
3,3,2,2,7,81,4,4,1,NA,NA,1,1,1,10,1300,0.62009,NA,1,0
3,3,2,2,7,82,3,1,3,NA,NA,3,3,1,10,1310,0.56322,NA,1,0
3,3,2,2,7,83,6,4,2,NA,NA,2,2,0,0,1310,0.57317,NA,1,0
3,3,2,2,7,84,5,2,3,NA,NA,2,2,0,0,1310,0.51991,NA,0,0
3,3,2,2,8,85,2,3,4,NA,NA,3,3,1,10,1320,0.4347,NA,1,0
3,3,2,2,8,86,4,1,4,NA,NA,1,1,1,10,1330,0.49012,NA,1,0
3,3,2,2,8,87,4,4,1,NA,NA,1,1,0,0,1330,0.55205,NA,1,0
3,3,2,2,8,88,5,2,3,NA,NA,3,3,1,10,1340,0.62661,NA,1,0
3,3,2,2,8,89,2,4,3,NA,NA,3,3,1,10,1350,0.69021,NA,1,0
3,3,2,2,8,90,1,2,1,NA,NA,2,2,0,0,1350,0.39215,NA,0,0
3,3,2,2,8,91,3,3,1,NA,NA,1,1,1,10,1360,0.44976,NA,0,0
3,3,2,2,8,92,1,1,2,NA,NA,2,2,0,0,1360,0.50466,NA,0,0
3,3,2,2,8,93,6,2,4,NA,NA,2,2,0,0,1360,0.63664,NA,1,0
3,3,2,2,8,94,3,1,3,NA,NA,1,1,1,10,1370,0.31678,NA,0,0
3,3,2,2,8,95,5,3,2,NA,NA,3,3,1,10,1380,0.49667,NA,1,0
3,3,2,2,8,96,6,4,2,NA,NA,4,4,0,0,1380,0.77292,NA,0,0
3,3,2,2,9,97,6,2,4,NA,NA,2,2,0,0,1380,0.27116,NA,1,0
3,3,2,2,9,98,1,1,2,NA,NA,2,2,0,0,1380,0.3411,NA,0,0
3,3,2,2,9,99,3,3,1,NA,NA,1,1,0,0,1380,0.37705,NA,0,0
3,3,2,2,9,100,2,3,4,NA,NA,3,3,1,10,1390,0.48382,NA,1,0
3,3,2,2,9,101,6,4,2,NA,NA,4,4,0,0,1390,0.6728,NA,0,0
3,3,2,2,9,102,2,4,3,NA,NA,3,3,1,10,1400,0.46319,NA,1,0
3,3,2,2,9,103,3,1,3,NA,NA,1,1,0,0,1400,0.50946,NA,0,0
3,3,2,2,9,104,1,2,1,NA,NA,2,2,1,10,1410,0.40963,NA,0,0
3,3,2,2,9,105,4,4,1,NA,NA,4,4,1,10,1420,1.0584,NA,0,0
3,3,2,2,9,106,4,1,4,NA,NA,1,1,1,10,1430,0.57686,NA,1,0
3,3,2,2,9,107,5,2,3,NA,NA,2,2,1,10,1440,0.88344,NA,0,0
3,3,2,2,9,108,5,3,2,NA,NA,3,3,0,0,1440,0.9123,NA,1,0
3,3,2,2,10,109,5,3,2,NA,NA,2,2,0,0,1440,0.31703,NA,0,0
3,3,2,2,10,110,5,2,3,NA,NA,3,3,1,10,1450,1.1134,NA,1,0
3,3,2,2,10,111,6,4,2,NA,NA,2,2,0,0,1450,0.68397,NA,1,0
3,3,2,2,10,112,2,3,4,NA,NA,3,3,1,10,1460,0.45809,NA,1,0
3,3,2,2,10,113,3,3,1,NA,NA,3,3,1,10,1470,0.4169,NA,1,0
3,3,2,2,10,114,1,2,1,NA,NA,2,2,0,0,1470,0.73709,NA,0,0
3,3,2,2,10,115,1,1,2,NA,NA,1,1,1,10,1480,0.4757,NA,1,0
3,3,2,2,10,116,4,1,4,NA,NA,1,1,1,10,1490,0.60245,NA,1,0
3,3,2,2,10,117,6,2,4,NA,NA,4,4,0,0,1490,0.50705,NA,0,0
3,3,2,2,10,118,4,4,1,NA,NA,1,1,0,0,1490,0.53594,NA,1,0
3,3,2,2,10,119,2,4,3,NA,NA,4,4,0,0,1490,0.49057,NA,0,0
3,3,2,2,10,120,3,1,3,NA,NA,3,3,1,10,1500,0.52024,NA,1,0
3,3,2,3,1,1,7,2,1,4,3,3,3,1,10,1510,3.0912,NA,NA,0
3,3,2,3,1,2,7,2,3,1,4,4,4,0,0,1510,1.3675,NA,NA,0
3,3,2,3,1,3,7,1,3,2,4,2,2,1,10,1520,0.39129,NA,NA,0
3,3,2,3,1,4,7,3,4,1,2,1,1,1,10,1530,0.24908,NA,NA,0
3,3,2,3,1,5,7,3,1,4,2,3,3,1,10,1540,0.23344,NA,NA,0
3,3,2,3,1,6,7,2,3,4,1,4,4,0,0,1540,0.56671,NA,NA,0
3,3,2,3,1,7,7,3,2,1,4,2,2,0,0,1540,0.56171,NA,NA,0
3,3,2,3,1,8,7,1,4,3,2,1,1,0,0,1540,0.25012,NA,NA,0
3,3,2,3,1,9,7,2,4,1,3,3,3,1,10,1550,0.26777,NA,NA,0
3,3,2,3,1,10,7,2,1,4,3,4,4,0,0,1550,0.26719,NA,NA,0
3,3,2,3,1,11,7,2,4,3,1,2,2,0,0,1550,0.29976,NA,NA,0
3,3,2,3,1,12,7,3,1,4,2,1,1,1,10,1560,0.25012,NA,NA,0
3,3,2,3,1,13,7,4,2,1,3,3,3,1,10,1570,0.45072,NA,NA,0
3,3,2,3,1,14,7,3,2,4,1,4,4,0,0,1570,0.52135,NA,NA,0
3,3,2,3,1,15,7,4,2,1,3,2,2,1,10,1580,0.0003137,NA,NA,0
3,3,2,3,1,16,7,1,3,2,4,1,1,1,10,1590,0.26673,NA,NA,0
3,3,2,3,1,17,7,3,2,4,1,3,3,1,10,1600,0.28394,NA,NA,0
3,3,2,3,1,18,7,4,1,2,3,4,4,0,0,1600,0.4169,NA,NA,0
3,3,2,3,1,19,7,1,3,4,2,2,2,0,0,1600,0.35434,NA,NA,0
3,3,2,3,1,20,7,1,4,2,3,1,1,0,0,1600,0.26152,NA,NA,0
3,3,2,4,1,1,1,1,NA,NA,NA,NA,NA,NA,NA,NA,NA,79.3333,NA,0
3,3,2,4,1,2,2,2,NA,NA,NA,NA,NA,NA,NA,NA,NA,38.8333,NA,0
3,3,2,4,1,3,3,3,NA,NA,NA,NA,NA,NA,NA,NA,NA,90.5,NA,0
3,3,2,4,1,4,4,4,NA,NA,NA,NA,NA,NA,NA,NA,NA,11.3333,NA,0
5,2,2,1,1,1,2,4,3,NA,NA,3,3,1,10,10,0.93089,NA,1,0
5,2,2,1,1,2,1,1,2,NA,NA,1,1,0,0,10,0.84611,NA,1,0
5,2,2,1,1,3,2,4,3,NA,NA,3,3,1,10,20,0.63281,NA,1,0
5,2,2,1,1,4,2,4,3,NA,NA,3,3,1,10,30,0.83392,NA,1,0
5,2,2,1,1,5,2,4,3,NA,NA,3,3,1,10,40,1.0681,NA,1,0
5,2,2,1,1,6,1,1,2,NA,NA,2,2,1,10,50,0.95725,NA,0,0
5,2,2,1,1,7,1,1,2,NA,NA,2,2,0,0,50,0.65046,NA,0,0
5,2,2,1,1,8,2,4,3,NA,NA,4,4,0,0,50,0.39543,NA,0,0
5,2,2,1,1,9,2,4,3,NA,NA,3,3,1,10,60,0.50394,NA,1,0
5,2,2,1,1,10,1,1,2,NA,NA,2,2,0,0,60,1.1588,NA,0,0
5,2,2,1,1,11,1,1,2,NA,NA,1,1,1,10,70,0.95613,NA,1,0
5,2,2,1,1,12,2,4,3,NA,NA,3,3,1,10,80,0.5374,NA,1,0
5,2,2,1,1,13,1,1,2,NA,NA,1,1,1,10,90,0.99943,NA,1,0
5,2,2,1,1,14,2,4,3,NA,NA,3,3,0,0,90,0.44974,NA,1,0
5,2,2,1,1,15,1,1,2,NA,NA,1,1,1,10,100,0.78714,NA,1,0
5,2,2,1,1,16,1,1,2,NA,NA,1,1,1,10,110,0.54337,NA,1,0
5,2,2,1,1,17,1,1,2,NA,NA,1,1,1,10,120,0.67703,NA,1,0
5,2,2,1,1,18,2,4,3,NA,NA,4,4,0,0,120,0.64485,NA,0,0
5,2,2,1,1,19,2,4,3,NA,NA,3,3,1,10,130,1.5748,NA,1,0
5,2,2,1,1,20,2,4,3,NA,NA,3,3,1,10,140,0.3555,NA,1,0
5,2,2,1,1,21,2,4,3,NA,NA,3,3,1,10,150,0.40935,NA,1,0
5,2,2,1,1,22,1,1,2,NA,NA,2,2,1,10,160,1.2208,NA,0,0
5,2,2,1,1,23,1,1,2,NA,NA,2,2,0,0,160,0.94283,NA,0,0
5,2,2,1,1,24,1,1,2,NA,NA,1,1,1,10,170,0.31719,NA,1,0
5,2,2,1,1,25,1,1,2,NA,NA,1,1,0,0,170,0.31575,NA,1,0
5,2,2,1,1,26,1,1,2,NA,NA,2,2,0,0,170,0.49854,NA,0,0
5,2,2,1,1,27,2,4,3,NA,NA,3,3,0,0,170,1.1858,NA,1,0
5,2,2,1,1,28,1,1,2,NA,NA,1,1,1,10,180,1.0217,NA,1,0
5,2,2,1,1,29,2,4,3,NA,NA,4,4,0,0,180,0.53334,NA,0,0
5,2,2,1,1,30,2,4,3,NA,NA,3,3,1,10,190,1.1024,NA,1,0
5,2,2,1,2,31,1,2,1,NA,NA,1,1,1,10,200,0.74195,NA,1,0
5,2,2,1,2,32,2,3,4,NA,NA,3,3,1,10,210,0.76323,NA,1,0
5,2,2,1,2,33,2,3,4,NA,NA,3,3,1,10,220,0.56879,NA,1,0
5,2,2,1,2,34,2,3,4,NA,NA,3,3,1,10,230,0.52587,NA,1,0
5,2,2,1,2,35,1,2,1,NA,NA,1,1,1,10,240,0.65213,NA,1,0
5,2,2,1,2,36,1,2,1,NA,NA,1,1,0,0,240,0.5499,NA,1,0
5,2,2,1,2,37,1,2,1,NA,NA,2,2,0,0,240,0.69123,NA,0,0
5,2,2,1,2,38,2,3,4,NA,NA,3,3,1,10,250,1.5869,NA,1,0
5,2,2,1,2,39,1,2,1,NA,NA,1,1,0,0,250,0.25471,NA,1,0
5,2,2,1,2,40,1,2,1,NA,NA,2,2,0,0,250,0.67972,NA,0,0
5,2,2,1,2,41,2,3,4,NA,NA,3,3,1,10,260,0.8244,NA,1,0
5,2,2,1,2,42,1,2,1,NA,NA,1,1,1,10,270,0.38734,NA,1,0
5,2,2,1,2,43,2,3,4,NA,NA,3,3,1,10,280,0.75938,NA,1,0
5,2,2,1,2,44,2,3,4,NA,NA,3,3,1,10,290,0.4685,NA,1,0
5,2,2,1,2,45,1,2,1,NA,NA,1,1,0,0,290,0.65332,NA,1,0
5,2,2,1,2,46,1,2,1,NA,NA,2,2,0,0,290,0.63911,NA,0,0
5,2,2,1,2,47,2,3,4,NA,NA,3,3,1,10,300,0.76082,NA,1,0
5,2,2,1,2,48,2,3,4,NA,NA,3,3,1,10,310,0.55043,NA,1,0
5,2,2,1,2,49,2,3,4,NA,NA,3,3,1,10,320,1.0992,NA,1,0
5,2,2,1,2,50,2,3,4,NA,NA,3,3,1,10,330,0.2663,NA,1,0
5,2,2,1,2,51,1,2,1,NA,NA,1,1,1,10,340,0.85106,NA,1,0
5,2,2,1,2,52,2,3,4,NA,NA,3,3,1,10,350,0.39566,NA,1,0
5,2,2,1,2,53,1,2,1,NA,NA,1,1,0,0,350,0.52033,NA,1,0
5,2,2,1,2,54,1,2,1,NA,NA,1,1,1,10,360,1.1431,NA,1,0
5,2,2,1,2,55,1,2,1,NA,NA,1,1,0,0,360,0.5324,NA,1,0
5,2,2,1,2,56,2,3,4,NA,NA,3,3,1,10,370,0.65865,NA,1,0
5,2,2,1,2,57,2,3,4,NA,NA,3,3,1,10,380,0.85167,NA,1,0
5,2,2,1,2,58,1,2,1,NA,NA,2,2,1,10,390,0.78959,NA,0,0
5,2,2,1,2,59,1,2,1,NA,NA,2,2,0,0,390,0.8975,NA,0,0
5,2,2,1,2,60,2,3,4,NA,NA,3,3,1,10,400,2.4077,NA,1,0
5,2,2,1,3,61,1,2,1,NA,NA,2,2,1,10,410,0.21075,NA,0,0
5,2,2,1,3,62,1,2,1,NA,NA,1,1,1,10,420,0.78174,NA,1,0
5,2,2,1,3,63,2,4,3,NA,NA,3,3,1,10,430,0.53612,NA,1,0
5,2,2,1,3,64,1,2,1,NA,NA,2,2,0,0,430,0.24642,NA,0,0
5,2,2,1,3,65,1,2,1,NA,NA,2,2,1,10,440,0.46654,NA,0,0
5,2,2,1,3,66,1,2,1,NA,NA,1,1,1,10,450,0.30457,NA,1,0
5,2,2,1,3,67,1,2,1,NA,NA,2,2,1,10,460,0.30014,NA,0,0
5,2,2,1,3,68,2,4,3,NA,NA,3,3,1,10,470,0.95325,NA,1,0
5,2,2,1,3,69,1,2,1,NA,NA,1,1,0,0,470,0.95879,NA,1,0
5,2,2,1,3,70,1,2,1,NA,NA,1,1,0,0,470,1.2518,NA,1,0
5,2,2,1,3,71,2,4,3,NA,NA,3,3,1,10,480,0.88546,NA,1,0
5,2,2,1,3,72,2,4,3,NA,NA,3,3,1,10,490,0.733,NA,1,0
5,2,2,1,3,73,1,2,1,NA,NA,1,1,1,10,500,0.93941,NA,1,0
5,2,2,1,3,74,2,4,3,NA,NA,3,3,1,10,510,1.3861,NA,1,0
5,2,2,1,3,75,1,2,1,NA,NA,2,2,0,0,510,0.62949,NA,0,0
5,2,2,1,3,76,1,2,1,NA,NA,2,2,0,0,510,0.88843,NA,0,0
5,2,2,1,3,77,2,4,3,NA,NA,3,3,1,10,520,0.48002,NA,1,0
5,2,2,1,3,78,1,2,1,NA,NA,1,1,1,10,530,0.31664,NA,1,0
5,2,2,1,3,79,2,4,3,NA,NA,3,3,0,0,530,0.52697,NA,1,0
5,2,2,1,3,80,2,4,3,NA,NA,3,3,0,0,530,0.36699,NA,1,0
5,2,2,1,3,81,2,4,3,NA,NA,4,4,0,0,530,0.23345,NA,0,0
5,2,2,1,3,82,2,4,3,NA,NA,3,3,1,10,540,0.28232,NA,1,0
5,2,2,1,3,83,2,4,3,NA,NA,3,3,1,10,550,0.61641,NA,1,0
5,2,2,1,3,84,2,4,3,NA,NA,3,3,1,10,560,0.4837,NA,1,0
5,2,2,1,3,85,2,4,3,NA,NA,3,3,0,0,560,0.38347,NA,1,0
5,2,2,1,3,86,1,2,1,NA,NA,1,1,1,10,570,1.0756,NA,1,0
5,2,2,1,3,87,1,2,1,NA,NA,1,1,0,0,570,0.31625,NA,1,0
5,2,2,1,3,88,2,4,3,NA,NA,3,3,1,10,580,0.48248,NA,1,0
5,2,2,1,3,89,2,4,3,NA,NA,3,3,1,10,590,0.46648,NA,1,0
5,2,2,1,3,90,1,2,1,NA,NA,2,2,0,0,590,0.98641,NA,0,0
5,2,2,1,4,91,1,2,1,NA,NA,2,2,0,0,590,0.64664,NA,0,0
5,2,2,1,4,92,1,2,1,NA,NA,1,1,1,10,600,0.28325,NA,1,0
5,2,2,1,4,93,1,2,1,NA,NA,1,1,1,10,610,0.85581,NA,1,0
5,2,2,1,4,94,1,2,1,NA,NA,1,1,1,10,620,0.49752,NA,1,0
5,2,2,1,4,95,2,4,3,NA,NA,3,3,1,10,630,0.62365,NA,1,0
5,2,2,1,4,96,2,4,3,NA,NA,3,3,1,10,640,0.80228,NA,1,0
5,2,2,1,4,97,2,4,3,NA,NA,3,3,1,10,650,0.56635,NA,1,0
5,2,2,1,4,98,2,4,3,NA,NA,3,3,1,10,660,0.36611,NA,1,0
5,2,2,1,4,99,1,2,1,NA,NA,1,1,0,0,660,0.70362,NA,1,0
5,2,2,1,4,100,2,4,3,NA,NA,3,3,1,10,670,0.45448,NA,1,0
5,2,2,1,4,101,1,2,1,NA,NA,2,2,1,10,680,0.56771,NA,0,0
5,2,2,1,4,102,2,4,3,NA,NA,3,3,1,10,690,0.39684,NA,1,0
5,2,2,1,4,103,2,4,3,NA,NA,3,3,1,10,700,0.68127,NA,1,0
5,2,2,1,4,104,2,4,3,NA,NA,3,3,1,10,710,0.56048,NA,1,0
5,2,2,1,4,105,1,2,1,NA,NA,2,2,0,0,710,0.57319,NA,0,0
5,2,2,1,4,106,1,2,1,NA,NA,2,2,0,0,710,0.51735,NA,0,0
5,2,2,1,4,107,2,4,3,NA,NA,3,3,1,10,720,0.46531,NA,1,0
5,2,2,1,4,108,2,4,3,NA,NA,3,3,1,10,730,0.52959,NA,1,0
5,2,2,1,4,109,1,2,1,NA,NA,1,1,1,10,740,0.52808,NA,1,0
5,2,2,1,4,110,1,2,1,NA,NA,1,1,0,0,740,0.56655,NA,1,0
5,2,2,1,4,111,1,2,1,NA,NA,1,1,0,0,740,0.24951,NA,1,0
5,2,2,1,4,112,1,2,1,NA,NA,2,2,1,10,750,1.0209,NA,0,0
5,2,2,1,4,113,1,2,1,NA,NA,2,2,0,0,750,0.59964,NA,0,0
5,2,2,1,4,114,2,4,3,NA,NA,3,3,1,10,760,0.85908,NA,1,0
5,2,2,1,4,115,2,4,3,NA,NA,3,3,1,10,770,0.93234,NA,1,0
5,2,2,1,4,116,2,4,3,NA,NA,3,3,1,10,780,0.97759,NA,1,0
5,2,2,1,4,117,1,2,1,NA,NA,1,1,1,10,790,1.0789,NA,1,0
5,2,2,1,4,118,2,4,3,NA,NA,3,3,0,0,790,0.39186,NA,1,0
5,2,2,1,4,119,1,2,1,NA,NA,2,2,1,10,800,0.7956,NA,0,0
5,2,2,1,4,120,2,4,3,NA,NA,3,3,1,10,810,0.39929,NA,1,0
5,2,2,1,5,121,1,2,1,NA,NA,1,1,1,10,820,0.59454,NA,1,0
5,2,2,1,5,122,2,3,4,NA,NA,3,3,1,10,830,0.53386,NA,1,0
5,2,2,1,5,123,2,3,4,NA,NA,3,3,1,10,840,1.1079,NA,1,0
5,2,2,1,5,124,2,3,4,NA,NA,3,3,1,10,850,0.27497,NA,1,0
5,2,2,1,5,125,2,3,4,NA,NA,3,3,1,10,860,0.3636,NA,1,0
5,2,2,1,5,126,1,2,1,NA,NA,1,1,1,10,870,1.5443,NA,1,0
5,2,2,1,5,127,2,3,4,NA,NA,3,3,1,10,880,0.66316,NA,1,0
5,2,2,1,5,128,2,3,4,NA,NA,3,3,1,10,890,0.4796,NA,1,0
5,2,2,1,5,129,1,2,1,NA,NA,2,2,0,0,890,0.77606,NA,0,0
5,2,2,1,5,130,2,3,4,NA,NA,3,3,1,10,900,0.23702,NA,1,0
5,2,2,1,5,131,2,3,4,NA,NA,3,3,0,0,900,2.1591,NA,1,0
5,2,2,1,5,132,2,3,4,NA,NA,4,4,0,0,900,1.0131,NA,0,0
5,2,2,1,5,133,1,2,1,NA,NA,1,1,1,10,910,0.76768,NA,1,0
5,2,2,1,5,134,2,3,4,NA,NA,4,4,0,0,910,0.94054,NA,0,0
5,2,2,1,5,135,1,2,1,NA,NA,1,1,0,0,910,0.52265,NA,1,0
5,2,2,1,5,136,2,3,4,NA,NA,4,4,0,0,910,1.4886,NA,0,0
5,2,2,1,5,137,1,2,1,NA,NA,2,2,1,10,920,0.50017,NA,0,0
5,2,2,1,5,138,2,3,4,NA,NA,3,3,1,10,930,0.67303,NA,1,0
5,2,2,1,5,139,1,2,1,NA,NA,2,2,1,10,940,1.2812,NA,0,0
5,2,2,1,5,140,2,3,4,NA,NA,3,3,1,10,950,0.47358,NA,1,0
5,2,2,1,5,141,1,2,1,NA,NA,1,1,1,10,960,0.5303,NA,1,0
5,2,2,1,5,142,1,2,1,NA,NA,2,2,0,0,960,0.84794,NA,0,0
5,2,2,1,5,143,2,3,4,NA,NA,3,3,1,10,970,0.84113,NA,1,0
5,2,2,1,5,144,1,2,1,NA,NA,2,2,0,0,970,0.60289,NA,0,0
5,2,2,1,5,145,2,3,4,NA,NA,3,3,1,10,980,2.8868,NA,1,0
5,2,2,1,5,146,1,2,1,NA,NA,1,1,1,10,990,2.839,NA,1,0
5,2,2,1,5,147,1,2,1,NA,NA,2,2,0,0,990,1.0245,NA,0,0
5,2,2,1,5,148,1,2,1,NA,NA,1,1,1,10,1000,0.30716,NA,1,0
5,2,2,1,5,149,1,2,1,NA,NA,1,1,1,10,1010,0.73281,NA,1,0
5,2,2,1,5,150,1,2,1,NA,NA,1,1,1,10,1020,0.3926,NA,1,0
5,2,2,2,1,1,4,1,4,NA,NA,1,1,1,10,1030,3.3349,NA,1,0
5,2,2,2,1,2,1,2,1,NA,NA,1,1,1,10,1040,2.4925,NA,1,0
5,2,2,2,1,3,4,4,1,NA,NA,1,1,0,0,1040,1.3248,NA,1,0
5,2,2,2,1,4,2,3,4,NA,NA,3,3,1,10,1050,0.66731,NA,1,0
5,2,2,2,1,5,5,2,3,NA,NA,2,2,1,10,1060,0.87538,NA,0,0
5,2,2,2,1,6,2,4,3,NA,NA,3,3,1,10,1070,0.4124,NA,1,0
5,2,2,2,1,7,3,3,1,NA,NA,3,3,0,0,1070,0.8498,NA,1,0
5,2,2,2,1,8,1,1,2,NA,NA,2,2,0,0,1070,2.2896,NA,0,0
5,2,2,2,1,9,3,1,3,NA,NA,3,3,0,0,1070,0.6328,NA,1,0
5,2,2,2,1,10,5,3,2,NA,NA,3,3,1,10,1080,1.4829,NA,1,0
5,2,2,2,1,11,6,2,4,NA,NA,2,2,1,10,1090,1.2429,NA,1,0
5,2,2,2,1,12,6,4,2,NA,NA,2,2,0,0,1090,0.93372,NA,1,0
5,2,2,2,2,13,3,1,3,NA,NA,3,3,1,10,1100,1.0757,NA,1,0
5,2,2,2,2,14,3,3,1,NA,NA,3,3,1,10,1110,0.94693,NA,1,0
5,2,2,2,2,15,1,1,2,NA,NA,1,1,0,0,1110,1.5454,NA,1,0
5,2,2,2,2,16,4,1,4,NA,NA,1,1,0,0,1110,0.59866,NA,1,0
5,2,2,2,2,17,5,3,2,NA,NA,3,3,1,10,1120,0.39465,NA,1,0
5,2,2,2,2,18,1,2,1,NA,NA,2,2,0,0,1120,0.83864,NA,0,0
5,2,2,2,2,19,2,3,4,NA,NA,3,3,1,10,1130,0.82406,NA,1,0
5,2,2,2,2,20,5,2,3,NA,NA,3,3,1,10,1140,0.5667,NA,1,0
5,2,2,2,2,21,6,4,2,NA,NA,2,2,1,10,1150,1.1277,NA,1,0
5,2,2,2,2,22,4,4,1,NA,NA,1,1,1,10,1160,1.263,NA,1,0
5,2,2,2,2,23,6,2,4,NA,NA,2,2,0,0,1160,3.5752,NA,1,0
5,2,2,2,2,24,2,4,3,NA,NA,3,3,1,10,1170,0.57221,NA,1,0
5,2,2,2,3,25,3,3,1,NA,NA,1,1,1,10,1180,0.60162,NA,0,0
5,2,2,2,3,26,3,1,3,NA,NA,3,3,1,10,1190,0.26634,NA,1,0
5,2,2,2,3,27,1,1,2,NA,NA,1,1,0,0,1190,0.91701,NA,1,0
5,2,2,2,3,28,6,4,2,NA,NA,2,2,1,10,1200,1.0835,NA,1,0
5,2,2,2,3,29,2,3,4,NA,NA,3,3,0,0,1200,0.76432,NA,1,0
5,2,2,2,3,30,5,3,2,NA,NA,3,3,1,10,1210,0.89932,NA,1,0
5,2,2,2,3,31,4,1,4,NA,NA,1,1,1,10,1220,1.016,NA,1,0
5,2,2,2,3,32,5,2,3,NA,NA,2,2,0,0,1220,0.82699,NA,0,0
5,2,2,2,3,33,6,2,4,NA,NA,2,2,0,0,1220,1.0213,NA,1,0
5,2,2,2,3,34,4,4,1,NA,NA,1,1,1,10,1230,0.84025,NA,1,0
5,2,2,2,3,35,1,2,1,NA,NA,1,1,1,10,1240,1.7945,NA,1,0
5,2,2,2,3,36,2,4,3,NA,NA,4,4,0,0,1240,1.5101,NA,0,0
5,2,2,2,4,37,3,1,3,NA,NA,3,3,0,0,1240,0.73332,NA,1,0
5,2,2,2,4,38,4,4,1,NA,NA,1,1,1,10,1250,1.0836,NA,1,0
5,2,2,2,4,39,4,1,4,NA,NA,1,1,1,10,1260,0.45109,NA,1,0
5,2,2,2,4,40,6,2,4,NA,NA,2,2,0,0,1260,0.45192,NA,1,0
5,2,2,2,4,41,1,1,2,NA,NA,1,1,1,10,1270,1.7661,NA,1,0
5,2,2,2,4,42,2,3,4,NA,NA,3,3,1,10,1280,0.33734,NA,1,0
5,2,2,2,4,43,3,3,1,NA,NA,1,1,0,0,1280,0.59178,NA,0,0
5,2,2,2,4,44,5,2,3,NA,NA,3,3,1,10,1290,0.57989,NA,1,0
5,2,2,2,4,45,6,4,2,NA,NA,2,2,0,0,1290,0.75992,NA,1,0
5,2,2,2,4,46,2,4,3,NA,NA,3,3,0,0,1290,0.62979,NA,1,0
5,2,2,2,4,47,5,3,2,NA,NA,3,3,1,10,1300,0.42385,NA,1,0
5,2,2,2,4,48,1,2,1,NA,NA,1,1,0,0,1300,0.83499,NA,1,0
5,2,2,2,5,49,3,1,3,NA,NA,1,1,1,10,1310,0.73322,NA,0,0
5,2,2,2,5,50,2,3,4,NA,NA,3,3,0,0,1310,0.39942,NA,1,0
5,2,2,2,5,51,1,2,1,NA,NA,1,1,1,10,1320,1.8712,NA,1,0
5,2,2,2,5,52,6,4,2,NA,NA,4,4,0,0,1320,1.1272,NA,0,0
5,2,2,2,5,53,6,2,4,NA,NA,2,2,0,0,1320,1.1172,NA,1,0
5,2,2,2,5,54,3,3,1,NA,NA,3,3,0,0,1320,0.80474,NA,1,0
5,2,2,2,5,55,4,1,4,NA,NA,1,1,1,10,1330,0.92712,NA,1,0
5,2,2,2,5,56,5,2,3,NA,NA,2,2,0,0,1330,1.1267,NA,0,0
5,2,2,2,5,57,1,1,2,NA,NA,1,1,0,0,1330,2.1245,NA,1,0
5,2,2,2,5,58,5,3,2,NA,NA,3,3,1,10,1340,0.75587,NA,1,0
5,2,2,2,5,59,4,4,1,NA,NA,1,1,1,10,1350,1.1527,NA,1,0
5,2,2,2,5,60,2,4,3,NA,NA,3,3,1,10,1360,0.61455,NA,1,0
5,2,2,2,6,61,1,2,1,NA,NA,1,1,1,10,1370,0.85696,NA,1,0
5,2,2,2,6,62,4,1,4,NA,NA,1,1,1,10,1380,0.46634,NA,1,0
5,2,2,2,6,63,5,2,3,NA,NA,2,2,0,0,1380,2.0739,NA,0,0
5,2,2,2,6,64,3,1,3,NA,NA,3,3,1,10,1390,0.79524,NA,1,0
5,2,2,2,6,65,4,4,1,NA,NA,1,1,1,10,1400,1.1587,NA,1,0
5,2,2,2,6,66,6,4,2,NA,NA,2,2,0,0,1400,1.9964,NA,1,0
5,2,2,2,6,67,3,3,1,NA,NA,3,3,1,10,1410,1.1037,NA,1,0
5,2,2,2,6,68,2,4,3,NA,NA,3,3,1,10,1420,0.38268,NA,1,0
5,2,2,2,6,69,6,2,4,NA,NA,2,2,0,0,1420,0.77082,NA,1,0
5,2,2,2,6,70,2,3,4,NA,NA,3,3,1,10,1430,0.33485,NA,1,0
5,2,2,2,6,71,5,3,2,NA,NA,3,3,0,0,1430,0.41288,NA,1,0
5,2,2,2,6,72,1,1,2,NA,NA,2,2,1,10,1440,0.87236,NA,0,0
5,2,2,2,7,73,4,1,4,NA,NA,1,1,1,10,1450,0.65694,NA,1,0
5,2,2,2,7,74,6,2,4,NA,NA,2,2,0,0,1450,1.01,NA,1,0
5,2,2,2,7,75,1,1,2,NA,NA,1,1,0,0,1450,1.0296,NA,1,0
5,2,2,2,7,76,3,1,3,NA,NA,3,3,1,10,1460,3.8241,NA,1,0
5,2,2,2,7,77,6,4,2,NA,NA,2,2,0,0,1460,1.1065,NA,1,0
5,2,2,2,7,78,1,2,1,NA,NA,1,1,1,10,1470,1.4739,NA,1,0
5,2,2,2,7,79,5,3,2,NA,NA,3,3,1,10,1480,1.0434,NA,1,0
5,2,2,2,7,80,4,4,1,NA,NA,1,1,0,0,1480,0.39712,NA,1,0
5,2,2,2,7,81,2,4,3,NA,NA,3,3,0,0,1480,0.99164,NA,1,0
5,2,2,2,7,82,2,3,4,NA,NA,3,3,1,10,1490,0.46625,NA,1,0
5,2,2,2,7,83,5,2,3,NA,NA,3,3,1,10,1500,2.988,NA,1,0
5,2,2,2,7,84,3,3,1,NA,NA,3,3,1,10,1510,0.6725,NA,1,0
5,2,2,2,8,85,1,1,2,NA,NA,1,1,1,10,1520,0.81671,NA,1,0
5,2,2,2,8,86,2,3,4,NA,NA,3,3,1,10,1530,0.52304,NA,1,0
5,2,2,2,8,87,3,3,1,NA,NA,3,3,1,10,1540,1.0329,NA,1,0
5,2,2,2,8,88,3,1,3,NA,NA,3,3,0,0,1540,0.92361,NA,1,0
5,2,2,2,8,89,5,2,3,NA,NA,3,3,0,0,1540,1.6742,NA,1,0
5,2,2,2,8,90,2,4,3,NA,NA,3,3,0,0,1540,0.89832,NA,1,0
5,2,2,2,8,91,4,4,1,NA,NA,1,1,0,0,1540,0.96199,NA,1,0
5,2,2,2,8,92,6,4,2,NA,NA,2,2,0,0,1540,0.94338,NA,1,0
5,2,2,2,8,93,4,1,4,NA,NA,1,1,1,10,1550,0.74134,NA,1,0
5,2,2,2,8,94,6,2,4,NA,NA,2,2,0,0,1550,1.0275,NA,1,0
5,2,2,2,8,95,1,2,1,NA,NA,1,1,1,10,1560,1.0703,NA,1,0
5,2,2,2,8,96,5,3,2,NA,NA,2,2,1,10,1570,1.8382,NA,0,0
5,2,2,2,9,97,3,3,1,NA,NA,3,3,1,10,1580,1.0488,NA,1,0
5,2,2,2,9,98,6,4,2,NA,NA,2,2,1,10,1590,1.2184,NA,1,0
5,2,2,2,9,99,3,1,3,NA,NA,3,3,1,10,1600,0.95766,NA,1,0
5,2,2,2,9,100,2,4,3,NA,NA,4,4,1,10,1610,1.3067,NA,0,0
5,2,2,2,9,101,6,2,4,NA,NA,2,2,1,10,1620,0.61748,NA,1,0
5,2,2,2,9,102,1,1,2,NA,NA,1,1,0,0,1620,1.4438,NA,1,0
5,2,2,2,9,103,5,3,2,NA,NA,3,3,1,10,1630,2.2858,NA,1,0
5,2,2,2,9,104,4,1,4,NA,NA,1,1,1,10,1640,1.8462,NA,1,0
5,2,2,2,9,105,2,3,4,NA,NA,3,3,1,10,1650,0.86454,NA,1,0
5,2,2,2,9,106,4,4,1,NA,NA,1,1,0,0,1650,0.7443,NA,1,0
5,2,2,2,9,107,1,2,1,NA,NA,1,1,1,10,1660,2.2384,NA,1,0
5,2,2,2,9,108,5,2,3,NA,NA,3,3,1,10,1670,1.4967,NA,1,0
5,2,2,2,10,109,5,3,2,NA,NA,3,3,1,10,1680,0.63294,NA,1,0
5,2,2,2,10,110,5,2,3,NA,NA,3,3,1,10,1690,0.49014,NA,1,0
5,2,2,2,10,111,2,4,3,NA,NA,3,3,1,10,1700,0.71456,NA,1,0
5,2,2,2,10,112,6,2,4,NA,NA,2,2,0,0,1700,2.3372,NA,1,0
5,2,2,2,10,113,2,3,4,NA,NA,4,4,0,0,1700,1.1997,NA,0,0
5,2,2,2,10,114,1,1,2,NA,NA,1,1,1,10,1710,1.1708,NA,1,0
5,2,2,2,10,115,6,4,2,NA,NA,2,2,1,10,1720,1.3271,NA,1,0
5,2,2,2,10,116,4,1,4,NA,NA,1,1,1,10,1730,2.0539,NA,1,0
5,2,2,2,10,117,1,2,1,NA,NA,1,1,1,10,1740,2.3675,NA,1,0
5,2,2,2,10,118,3,3,1,NA,NA,3,3,1,10,1750,3.2197,NA,1,0
5,2,2,2,10,119,4,4,1,NA,NA,1,1,1,10,1760,3.2624,NA,1,0
5,2,2,2,10,120,3,1,3,NA,NA,3,3,1,10,1770,5.0552,NA,1,0
5,2,2,3,1,1,7,4,2,1,3,3,3,0,0,1770,2.433,NA,NA,0
5,2,2,3,1,2,7,3,4,1,2,3,3,0,0,1770,0.21114,NA,NA,0
5,2,2,3,1,3,7,2,1,4,3,3,3,1,10,1780,0.18373,NA,NA,0
5,2,2,3,1,4,7,4,2,1,3,1,1,1,10,1790,0.0025205,NA,NA,0
5,2,2,3,1,5,7,4,2,1,3,2,2,1,10,1800,0.17385,NA,NA,0
5,2,2,3,1,6,7,4,2,3,1,1,1,1,10,1810,0.18317,NA,NA,0
5,2,2,3,1,7,7,1,3,2,4,3,3,1,10,1820,0.0002657,NA,NA,0
5,2,2,3,1,8,7,4,3,2,1,3,3,1,10,1830,0.20099,NA,NA,0
5,2,2,3,1,9,7,1,4,3,2,3,3,1,10,1840,0.0002276,NA,NA,0
5,2,2,3,1,10,7,4,3,2,1,1,1,0,0,1840,0.2001,NA,NA,0
5,2,2,3,1,11,7,3,4,2,1,2,2,0,0,1840,0.21677,NA,NA,0
5,2,2,3,1,12,7,3,2,1,4,1,1,1,10,1850,0.26939,NA,NA,0
5,2,2,3,1,13,7,1,3,4,2,2,2,0,0,1850,0.22185,NA,NA,0
5,2,2,3,1,14,7,4,1,3,2,3,3,1,10,1860,0.4331,NA,NA,0
5,2,2,3,1,15,7,3,2,4,1,3,3,1,10,1870,0.0003169,NA,NA,0
5,2,2,3,1,16,7,3,1,2,4,4,4,1,10,1880,0.26951,NA,NA,0
5,2,2,3,1,17,7,1,3,2,4,1,1,1,10,1890,0.21664,NA,NA,0
5,2,2,3,1,18,7,4,2,1,3,2,2,0,0,1890,0.19304,NA,NA,0
5,2,2,3,1,19,7,1,4,2,3,1,1,0,0,1890,0.77242,NA,NA,0
5,2,2,3,1,20,7,4,2,1,3,3,3,0,0,1890,0.34491,NA,NA,0
5,2,2,4,1,1,1,1,NA,NA,NA,NA,NA,NA,NA,NA,NA,70,NA,0
5,2,2,4,1,2,2,2,NA,NA,NA,NA,NA,NA,NA,NA,NA,40.3333,NA,0
5,2,2,4,1,3,3,3,NA,NA,NA,NA,NA,NA,NA,NA,NA,99,NA,0
5,2,2,4,1,4,4,4,NA,NA,NA,NA,NA,NA,NA,NA,NA,5,NA,0
6,3,2,1,1,1,1,2,1,NA,NA,2,2,0,0,0,2.039,NA,0,0
6,3,2,1,1,2,1,1,2,NA,NA,1,1,1,10,10,2.3182,NA,1,0
6,3,2,1,1,3,2,3,4,NA,NA,4,4,0,0,10,3.1478,NA,0,0
6,3,2,1,1,4,2,3,4,NA,NA,3,3,0,0,10,0.7608,NA,1,0
6,3,2,1,1,5,2,4,3,NA,NA,3,3,1,10,20,1.2289,NA,1,0
6,3,2,1,1,6,1,2,1,NA,NA,2,2,0,0,20,2.2499,NA,0,0
6,3,2,1,1,7,2,4,3,NA,NA,3,3,1,10,30,3.4791,NA,1,0
6,3,2,1,1,8,1,1,2,NA,NA,1,1,1,10,40,3.9279,NA,1,0
6,3,2,1,1,9,1,2,1,NA,NA,1,1,1,10,50,3.4663,NA,1,0
6,3,2,1,1,10,1,2,1,NA,NA,1,1,1,10,60,1.2326,NA,1,0
6,3,2,1,1,11,1,1,2,NA,NA,1,1,1,10,70,1.6494,NA,1,0
6,3,2,1,1,12,2,4,3,NA,NA,3,3,1,10,80,1.7203,NA,1,0
6,3,2,1,1,13,1,1,2,NA,NA,1,1,1,10,90,1.7026,NA,1,0
6,3,2,1,1,14,1,2,1,NA,NA,1,1,0,0,90,1.0524,NA,1,0
6,3,2,1,1,15,1,1,2,NA,NA,2,2,1,10,100,0.82945,NA,0,0
6,3,2,1,1,16,1,2,1,NA,NA,2,2,0,0,100,0.95046,NA,0,0
6,3,2,1,1,17,1,2,1,NA,NA,1,1,1,10,110,0.64372,NA,1,0
6,3,2,1,1,18,1,1,2,NA,NA,1,1,1,10,120,0.83333,NA,1,0
6,3,2,1,1,19,1,2,1,NA,NA,1,1,1,10,130,1.6659,NA,1,0
6,3,2,1,1,20,1,1,2,NA,NA,1,1,1,10,140,1.2832,NA,1,0
6,3,2,1,1,21,1,1,2,NA,NA,2,2,0,0,140,0.90422,NA,0,0
6,3,2,1,1,22,2,4,3,NA,NA,3,3,0,0,140,2.3514,NA,1,0
6,3,2,1,1,23,1,2,1,NA,NA,1,1,0,0,140,1.3891,NA,1,0
6,3,2,1,1,24,1,1,2,NA,NA,2,2,1,10,150,3.0879,NA,0,0
6,3,2,1,1,25,2,3,4,NA,NA,4,4,1,10,160,1.2068,NA,0,0
6,3,2,1,1,26,2,4,3,NA,NA,4,4,0,0,160,0.83298,NA,0,0
6,3,2,1,1,27,1,1,2,NA,NA,1,1,1,10,170,1.4112,NA,1,0
6,3,2,1,1,28,2,3,4,NA,NA,3,3,1,10,180,6.4773,NA,1,0
6,3,2,1,1,29,2,3,4,NA,NA,3,3,0,0,180,3.245,NA,1,0
6,3,2,1,1,30,1,2,1,NA,NA,1,1,0,0,180,3.1265,NA,1,0
6,3,2,1,2,31,1,2,1,NA,NA,2,2,0,0,180,0.93278,NA,0,0
6,3,2,1,2,32,1,2,1,NA,NA,1,1,1,10,190,3.2658,NA,1,0
6,3,2,1,2,33,2,4,3,NA,NA,3,3,1,10,200,5.6986,NA,1,0
6,3,2,1,2,34,2,4,3,NA,NA,3,3,1,10,210,1.9688,NA,1,0
6,3,2,1,2,35,1,1,2,NA,NA,2,2,0,0,210,3.4449,NA,0,0
6,3,2,1,2,36,1,2,1,NA,NA,1,1,1,10,220,0.69412,NA,1,0
6,3,2,1,2,37,2,3,4,NA,NA,3,3,1,10,230,1.6692,NA,1,0
6,3,2,1,2,38,1,1,2,NA,NA,1,1,1,10,240,1.5012,NA,1,0
6,3,2,1,2,39,1,1,2,NA,NA,1,1,1,10,250,0.59967,NA,1,0
6,3,2,1,2,40,2,4,3,NA,NA,3,3,1,10,260,1.9509,NA,1,0
6,3,2,1,2,41,1,2,1,NA,NA,1,1,1,10,270,0.87495,NA,1,0
6,3,2,1,2,42,2,3,4,NA,NA,3,3,1,10,280,0.8832,NA,1,0
6,3,2,1,2,43,2,3,4,NA,NA,3,3,1,10,290,0.69827,NA,1,0
6,3,2,1,2,44,1,2,1,NA,NA,1,1,1,10,300,1.1996,NA,1,0
6,3,2,1,2,45,1,2,1,NA,NA,1,1,1,10,310,1.5499,NA,1,0
6,3,2,1,2,46,1,1,2,NA,NA,1,1,1,10,320,1.0829,NA,1,0
6,3,2,1,2,47,2,4,3,NA,NA,3,3,1,10,330,0.72798,NA,1,0
6,3,2,1,2,48,2,3,4,NA,NA,3,3,1,10,340,0.43305,NA,1,0
6,3,2,1,2,49,2,3,4,NA,NA,3,3,1,10,350,0.59992,NA,1,0
6,3,2,1,2,50,1,1,2,NA,NA,1,1,1,10,360,1.1944,NA,1,0
6,3,2,1,2,51,2,4,3,NA,NA,3,3,1,10,370,0.98099,NA,1,0
6,3,2,1,2,52,1,2,1,NA,NA,1,1,1,10,380,0.95258,NA,1,0
6,3,2,1,2,53,1,2,1,NA,NA,1,1,0,0,380,0.53399,NA,1,0
6,3,2,1,2,54,1,1,2,NA,NA,1,1,1,10,390,1.0329,NA,1,0
6,3,2,1,2,55,1,2,1,NA,NA,1,1,0,0,390,1.716,NA,1,0
6,3,2,1,2,56,1,1,2,NA,NA,1,1,1,10,400,1.378,NA,1,0
6,3,2,1,2,57,1,1,2,NA,NA,2,2,0,0,400,1.0462,NA,0,0
6,3,2,1,2,58,1,1,2,NA,NA,1,1,1,10,410,0.72757,NA,1,0
6,3,2,1,2,59,1,2,1,NA,NA,1,1,0,0,410,0.93329,NA,1,0
6,3,2,1,2,60,1,1,2,NA,NA,1,1,0,0,410,0.83316,NA,1,0
6,3,2,1,3,61,1,1,2,NA,NA,2,2,0,0,410,0.58832,NA,0,0
6,3,2,1,3,62,1,1,2,NA,NA,1,1,0,0,410,7.6234,NA,1,0
6,3,2,1,3,63,1,1,2,NA,NA,1,1,0,0,410,0.80913,NA,1,0
6,3,2,1,3,64,1,1,2,NA,NA,2,2,0,0,410,0.61201,NA,0,0
6,3,2,1,3,65,2,3,4,NA,NA,3,3,0,0,410,1.7266,NA,1,0
6,3,2,1,3,66,2,3,4,NA,NA,4,4,1,10,420,0.71562,NA,0,0
6,3,2,1,3,67,1,2,1,NA,NA,2,2,0,0,420,2.4098,NA,0,0
6,3,2,1,3,68,1,1,2,NA,NA,1,1,1,10,430,0.46915,NA,1,0
6,3,2,1,3,69,2,4,3,NA,NA,3,3,0,0,430,4.3645,NA,1,0
6,3,2,1,3,70,2,3,4,NA,NA,4,4,1,10,440,1.2084,NA,0,0
6,3,2,1,3,71,1,2,1,NA,NA,1,1,0,0,440,3.7636,NA,1,0
6,3,2,1,3,72,1,1,2,NA,NA,1,1,0,0,440,0.70344,NA,1,0
6,3,2,1,3,73,1,2,1,NA,NA,1,1,1,10,450,0.87846,NA,1,0
6,3,2,1,3,74,2,4,3,NA,NA,4,4,1,10,460,1.4542,NA,0,0
6,3,2,1,3,75,2,4,3,NA,NA,4,4,0,0,460,5.3828,NA,0,0
6,3,2,1,3,76,1,1,2,NA,NA,1,1,0,0,460,0.76241,NA,1,0
6,3,2,1,3,77,1,2,1,NA,NA,2,2,0,0,460,0.41464,NA,0,0
6,3,2,1,3,78,1,1,2,NA,NA,2,2,0,0,460,0.72087,NA,0,0
6,3,2,1,3,79,1,1,2,NA,NA,1,1,0,0,460,0.59115,NA,1,0
6,3,2,1,3,80,1,1,2,NA,NA,1,1,1,10,470,0.59429,NA,1,0
6,3,2,1,3,81,1,2,1,NA,NA,1,1,0,0,470,2.582,NA,1,0
6,3,2,1,3,82,1,2,1,NA,NA,1,1,1,10,480,0.60859,NA,1,0
6,3,2,1,3,83,1,2,1,NA,NA,2,2,1,10,490,2.7795,NA,0,0
6,3,2,1,3,84,1,2,1,NA,NA,1,1,1,10,500,4.3994,NA,1,0
6,3,2,1,3,85,2,3,4,NA,NA,4,4,1,10,510,4.258,NA,0,0
6,3,2,1,3,86,1,2,1,NA,NA,1,1,1,10,520,2.1544,NA,1,0
6,3,2,1,3,87,2,4,3,NA,NA,4,4,0,0,520,3.0312,NA,0,0
6,3,2,1,3,88,2,4,3,NA,NA,3,3,0,0,520,0.92841,NA,1,0
6,3,2,1,3,89,2,3,4,NA,NA,3,3,1,10,530,0.70176,NA,1,0
6,3,2,1,3,90,1,2,1,NA,NA,2,2,0,0,530,3.1963,NA,0,0
6,3,2,1,4,91,2,4,3,NA,NA,4,4,1,10,540,2.4084,NA,0,0
6,3,2,1,4,92,1,2,1,NA,NA,1,1,0,0,540,4.1441,NA,1,0
6,3,2,1,4,93,2,4,3,NA,NA,4,4,0,0,540,3.302,NA,0,0
6,3,2,1,4,94,1,2,1,NA,NA,1,1,1,10,550,1.3831,NA,1,0
6,3,2,1,4,95,1,1,2,NA,NA,2,2,0,0,550,6.2557,NA,0,0
6,3,2,1,4,96,1,1,2,NA,NA,1,1,0,0,550,0.64115,NA,1,0
6,3,2,1,4,97,1,1,2,NA,NA,2,2,0,0,550,0.64168,NA,0,0
6,3,2,1,4,98,1,2,1,NA,NA,2,2,0,0,550,0.62695,NA,0,0
6,3,2,1,4,99,2,3,4,NA,NA,4,4,0,0,550,0.87771,NA,0,0
6,3,2,1,4,100,2,3,4,NA,NA,3,3,1,10,560,0.64549,NA,1,0
6,3,2,1,4,101,1,2,1,NA,NA,1,1,1,10,570,0.49966,NA,1,0
6,3,2,1,4,102,1,2,1,NA,NA,1,1,0,0,570,0.54986,NA,1,0
6,3,2,1,4,103,1,1,2,NA,NA,2,2,0,0,570,0.61043,NA,0,0
6,3,2,1,4,104,1,1,2,NA,NA,2,2,0,0,570,1.0926,NA,0,0
6,3,2,1,4,105,1,2,1,NA,NA,2,2,1,10,580,0.57232,NA,0,0
6,3,2,1,4,106,1,2,1,NA,NA,1,1,0,0,580,0.783,NA,1,0
6,3,2,1,4,107,2,3,4,NA,NA,3,3,1,10,590,1.203,NA,1,0
6,3,2,1,4,108,2,3,4,NA,NA,3,3,0,0,590,1.3329,NA,1,0
6,3,2,1,4,109,1,1,2,NA,NA,1,1,0,0,590,2.1831,NA,1,0
6,3,2,1,4,110,1,2,1,NA,NA,2,2,0,0,590,1.8457,NA,0,0
6,3,2,1,4,111,1,2,1,NA,NA,1,1,1,10,600,0.72692,NA,1,0
6,3,2,1,4,112,1,1,2,NA,NA,2,2,0,0,600,1.9171,NA,0,0
6,3,2,1,4,113,1,1,2,NA,NA,1,1,0,0,600,0.77036,NA,1,0
6,3,2,1,4,114,1,1,2,NA,NA,1,1,0,0,600,0.72668,NA,1,0
6,3,2,1,4,115,1,1,2,NA,NA,1,1,1,10,610,1.9571,NA,1,0
6,3,2,1,4,116,2,4,3,NA,NA,4,4,1,10,620,1.4576,NA,0,0
6,3,2,1,4,117,2,4,3,NA,NA,4,4,0,0,620,2.4026,NA,0,0
6,3,2,1,4,118,2,4,3,NA,NA,3,3,1,10,630,0.82064,NA,1,0
6,3,2,1,4,119,2,3,4,NA,NA,3,3,0,0,630,0.8946,NA,1,0
6,3,2,1,4,120,1,2,1,NA,NA,1,1,0,0,630,0.91835,NA,1,0
6,3,2,1,5,121,1,2,1,NA,NA,2,2,0,0,630,0.42009,NA,0,0
6,3,2,1,5,122,2,3,4,NA,NA,4,4,0,0,630,0.9576,NA,0,0
6,3,2,1,5,123,1,2,1,NA,NA,1,1,1,10,640,0.5143,NA,1,0
6,3,2,1,5,124,1,2,1,NA,NA,1,1,1,10,650,0.46502,NA,1,0
6,3,2,1,5,125,1,2,1,NA,NA,1,1,1,10,660,0.5208,NA,1,0
6,3,2,1,5,126,2,4,3,NA,NA,3,3,1,10,670,1.847,NA,1,0
6,3,2,1,5,127,1,1,2,NA,NA,1,1,1,10,680,0.58374,NA,1,0
6,3,2,1,5,128,1,2,1,NA,NA,1,1,1,10,690,0.29944,NA,1,0
6,3,2,1,5,129,1,1,2,NA,NA,1,1,1,10,700,0.57059,NA,1,0
6,3,2,1,5,130,1,2,1,NA,NA,1,1,0,0,700,0.45344,NA,1,0
6,3,2,1,5,131,2,4,3,NA,NA,3,3,1,10,710,2.0705,NA,1,0
6,3,2,1,5,132,1,1,2,NA,NA,1,1,1,10,720,1.3069,NA,1,0
6,3,2,1,5,133,2,3,4,NA,NA,4,4,0,0,720,1.4822,NA,0,0
6,3,2,1,5,134,1,2,1,NA,NA,1,1,1,10,730,0.68938,NA,1,0
6,3,2,1,5,135,1,2,1,NA,NA,1,1,1,10,740,0.62441,NA,1,0
6,3,2,1,5,136,1,1,2,NA,NA,1,1,0,0,740,0.82709,NA,1,0
6,3,2,1,5,137,1,1,2,NA,NA,1,1,1,10,750,1.3087,NA,1,0
6,3,2,1,5,138,2,3,4,NA,NA,4,4,0,0,750,1.1238,NA,0,0
6,3,2,1,5,139,1,2,1,NA,NA,1,1,1,10,760,0.36644,NA,1,0
6,3,2,1,5,140,1,1,2,NA,NA,1,1,0,0,760,1.7097,NA,1,0
6,3,2,1,5,141,1,1,2,NA,NA,1,1,1,10,770,1.0683,NA,1,0
6,3,2,1,5,142,2,4,3,NA,NA,3,3,0,0,770,1.1324,NA,1,0
6,3,2,1,5,143,1,1,2,NA,NA,2,2,0,0,770,1.2815,NA,0,0
6,3,2,1,5,144,2,3,4,NA,NA,4,4,1,10,780,0.95249,NA,0,0
6,3,2,1,5,145,2,4,3,NA,NA,4,4,1,10,790,1.4852,NA,0,0
6,3,2,1,5,146,1,1,2,NA,NA,2,2,0,0,790,1.0766,NA,0,0
6,3,2,1,5,147,1,2,1,NA,NA,1,1,0,0,790,0.54054,NA,1,0
6,3,2,1,5,148,1,1,2,NA,NA,1,1,0,0,790,0.74596,NA,1,0
6,3,2,1,5,149,2,3,4,NA,NA,3,3,0,0,790,1.3995,NA,1,0
6,3,2,1,5,150,2,4,3,NA,NA,3,3,1,10,800,1.4259,NA,1,0
6,3,2,2,1,1,4,4,1,NA,NA,1,1,0,0,800,4.6558,NA,1,0
6,3,2,2,1,2,3,1,3,NA,NA,1,1,0,0,800,3.3197,NA,0,0
6,3,2,2,1,3,1,2,1,NA,NA,2,2,0,0,800,5.1502,NA,0,0
6,3,2,2,1,4,3,3,1,NA,NA,3,3,0,0,800,0.78625,NA,1,0
6,3,2,2,1,5,5,3,2,NA,NA,2,2,0,0,800,1.7099,NA,0,0
6,3,2,2,1,6,4,1,4,NA,NA,1,1,1,10,810,1.7405,NA,1,0
6,3,2,2,1,7,5,2,3,NA,NA,3,3,1,10,820,0.89783,NA,1,0
6,3,2,2,1,8,6,4,2,NA,NA,2,2,1,10,830,4.4566,NA,1,0
6,3,2,2,1,9,2,3,4,NA,NA,4,4,0,0,830,1.058,NA,0,0
6,3,2,2,1,10,6,2,4,NA,NA,2,2,0,0,830,0.73837,NA,1,0
6,3,2,2,1,11,1,1,2,NA,NA,1,1,1,10,840,0.99183,NA,1,0
6,3,2,2,1,12,2,4,3,NA,NA,3,3,1,10,850,1.0439,NA,1,0
6,3,2,2,2,13,4,4,1,NA,NA,4,4,0,0,850,1.5087,NA,0,0
6,3,2,2,2,14,3,3,1,NA,NA,1,1,1,10,860,2.6914,NA,0,0
6,3,2,2,2,15,6,4,2,NA,NA,4,4,1,10,870,3.4111,NA,0,0
6,3,2,2,2,16,5,3,2,NA,NA,3,3,1,10,880,1.9252,NA,1,0
6,3,2,2,2,17,6,2,4,NA,NA,2,2,0,0,880,0.97153,NA,1,0
6,3,2,2,2,18,4,1,4,NA,NA,1,1,1,10,890,0.95938,NA,1,0
6,3,2,2,2,19,2,4,3,NA,NA,4,4,1,10,900,1.6595,NA,0,0
6,3,2,2,2,20,5,2,3,NA,NA,3,3,1,10,910,1.3567,NA,1,0
6,3,2,2,2,21,1,2,1,NA,NA,1,1,0,0,910,3.4831,NA,1,0
6,3,2,2,2,22,2,3,4,NA,NA,4,4,0,0,910,1.1757,NA,0,0
6,3,2,2,2,23,3,1,3,NA,NA,1,1,0,0,910,2.3236,NA,0,0
6,3,2,2,2,24,1,1,2,NA,NA,2,2,1,10,920,0.98497,NA,0,0
6,3,2,2,3,25,6,4,2,NA,NA,4,4,1,10,930,1.1179,NA,0,0
6,3,2,2,3,26,2,3,4,NA,NA,3,3,1,10,940,2.9876,NA,1,0
6,3,2,2,3,27,4,1,4,NA,NA,4,4,0,0,940,1.022,NA,0,0
6,3,2,2,3,28,2,4,3,NA,NA,3,3,0,0,940,0.7836,NA,1,0
6,3,2,2,3,29,3,3,1,NA,NA,1,1,0,0,940,3.0032,NA,0,0
6,3,2,2,3,30,4,4,1,NA,NA,4,4,0,0,940,1.2936,NA,0,0
6,3,2,2,3,31,3,1,3,NA,NA,1,1,1,10,950,1.3898,NA,0,0
6,3,2,2,3,32,1,2,1,NA,NA,1,1,1,10,960,2.9604,NA,1,0
6,3,2,2,3,33,5,2,3,NA,NA,3,3,0,0,960,5.7737,NA,1,0
6,3,2,2,3,34,5,3,2,NA,NA,3,3,1,10,970,1.8972,NA,1,0
6,3,2,2,3,35,1,1,2,NA,NA,1,1,1,10,980,1.6807,NA,1,0
6,3,2,2,3,36,6,2,4,NA,NA,2,2,0,0,980,4.2635,NA,1,0
6,3,2,2,4,37,2,3,4,NA,NA,3,3,0,0,980,1.9912,NA,1,0
6,3,2,2,4,38,4,4,1,NA,NA,1,1,1,10,990,4.3628,NA,1,0
6,3,2,2,4,39,1,2,1,NA,NA,1,1,1,10,1000,1.1034,NA,1,0
6,3,2,2,4,40,5,2,3,NA,NA,3,3,0,0,1000,1.9985,NA,1,0
6,3,2,2,4,41,3,1,3,NA,NA,3,3,1,10,1010,1.9763,NA,1,0
6,3,2,2,4,42,6,4,2,NA,NA,2,2,1,10,1020,1.1247,NA,1,0
6,3,2,2,4,43,6,2,4,NA,NA,2,2,0,0,1020,1.6347,NA,1,0
6,3,2,2,4,44,2,4,3,NA,NA,3,3,0,0,1020,0.75635,NA,1,0
6,3,2,2,4,45,1,1,2,NA,NA,2,2,1,10,1030,1.5369,NA,0,0
6,3,2,2,4,46,3,3,1,NA,NA,3,3,0,0,1030,6.433,NA,1,0
6,3,2,2,4,47,4,1,4,NA,NA,1,1,0,0,1030,4.0063,NA,1,0
6,3,2,2,4,48,5,3,2,NA,NA,2,2,1,10,1040,3.9664,NA,0,0
6,3,2,2,5,49,2,4,3,NA,NA,3,3,0,0,1040,1.5896,NA,1,0
6,3,2,2,5,50,5,2,3,NA,NA,2,2,0,0,1040,1.2815,NA,0,0
6,3,2,2,5,51,6,4,2,NA,NA,2,2,0,0,1040,2.2401,NA,1,0
6,3,2,2,5,52,6,2,4,NA,NA,4,4,0,0,1040,2.1856,NA,0,0
6,3,2,2,5,53,3,1,3,NA,NA,1,1,1,10,1050,2.3407,NA,0,0
6,3,2,2,5,54,1,2,1,NA,NA,2,2,0,0,1050,2.2021,NA,0,0
6,3,2,2,5,55,3,3,1,NA,NA,3,3,0,0,1050,1.8289,NA,1,0
6,3,2,2,5,56,4,1,4,NA,NA,4,4,1,10,1060,1.6385,NA,0,0
6,3,2,2,5,57,1,1,2,NA,NA,1,1,1,10,1070,0.8,NA,1,0
6,3,2,2,5,58,5,3,2,NA,NA,2,2,0,0,1070,1.1543,NA,0,0
6,3,2,2,5,59,4,4,1,NA,NA,1,1,0,0,1070,0.82304,NA,1,0
6,3,2,2,5,60,2,3,4,NA,NA,3,3,1,10,1080,1.9931,NA,1,0
6,3,2,2,6,61,5,3,2,NA,NA,2,2,0,0,1080,1.3164,NA,0,0
6,3,2,2,6,62,1,1,2,NA,NA,1,1,1,10,1090,1.0186,NA,1,0
6,3,2,2,6,63,2,4,3,NA,NA,3,3,1,10,1100,0.59589,NA,1,0
6,3,2,2,6,64,3,3,1,NA,NA,1,1,0,0,1100,0.48718,NA,0,0
6,3,2,2,6,65,1,2,1,NA,NA,2,2,0,0,1100,1.2546,NA,0,0
6,3,2,2,6,66,4,1,4,NA,NA,1,1,0,0,1100,1.1751,NA,1,0
6,3,2,2,6,67,3,1,3,NA,NA,3,3,1,10,1110,0.91577,NA,1,0
6,3,2,2,6,68,4,4,1,NA,NA,1,1,1,10,1120,1.5128,NA,1,0
6,3,2,2,6,69,6,4,2,NA,NA,4,4,0,0,1120,2.3604,NA,0,0
6,3,2,2,6,70,6,2,4,NA,NA,2,2,0,0,1120,1.3885,NA,1,0
6,3,2,2,6,71,5,2,3,NA,NA,3,3,1,10,1130,0.75985,NA,1,0
6,3,2,2,6,72,2,3,4,NA,NA,4,4,0,0,1130,1.5886,NA,0,0
6,3,2,2,7,73,2,4,3,NA,NA,3,3,0,0,1130,1.0157,NA,1,0
6,3,2,2,7,74,6,4,2,NA,NA,2,2,1,10,1140,0.86624,NA,1,0
6,3,2,2,7,75,2,3,4,NA,NA,3,3,1,10,1150,1.6423,NA,1,0
6,3,2,2,7,76,6,2,4,NA,NA,2,2,0,0,1150,2.1546,NA,1,0
6,3,2,2,7,77,4,4,1,NA,NA,4,4,1,10,1160,1.1997,NA,0,0
6,3,2,2,7,78,5,3,2,NA,NA,2,2,0,0,1160,0.65801,NA,0,0
6,3,2,2,7,79,4,1,4,NA,NA,1,1,1,10,1170,0.66624,NA,1,0
6,3,2,2,7,80,3,3,1,NA,NA,3,3,1,10,1180,0.91461,NA,1,0
6,3,2,2,7,81,1,1,2,NA,NA,2,2,1,10,1190,0.84033,NA,0,0
6,3,2,2,7,82,3,1,3,NA,NA,1,1,1,10,1200,0.91404,NA,0,0
6,3,2,2,7,83,1,2,1,NA,NA,1,1,1,10,1210,0.5682,NA,1,0
6,3,2,2,7,84,5,2,3,NA,NA,2,2,0,0,1210,0.73258,NA,0,0
6,3,2,2,8,85,6,2,4,NA,NA,4,4,0,0,1210,0.96926,NA,0,0
6,3,2,2,8,86,6,4,2,NA,NA,2,2,0,0,1210,0.47761,NA,1,0
6,3,2,2,8,87,3,1,3,NA,NA,3,3,1,10,1220,0.73369,NA,1,0
6,3,2,2,8,88,5,2,3,NA,NA,2,2,1,10,1230,0.53106,NA,0,0
6,3,2,2,8,89,2,3,4,NA,NA,4,4,0,0,1230,0.76782,NA,0,0
6,3,2,2,8,90,1,2,1,NA,NA,1,1,0,0,1230,0.52371,NA,1,0
6,3,2,2,8,91,3,3,1,NA,NA,1,1,1,10,1240,0.6744,NA,0,0
6,3,2,2,8,92,4,4,1,NA,NA,1,1,1,10,1250,1.0659,NA,1,0
6,3,2,2,8,93,2,4,3,NA,NA,3,3,1,10,1260,1.766,NA,1,0
6,3,2,2,8,94,5,3,2,NA,NA,2,2,0,0,1260,0.50219,NA,0,0
6,3,2,2,8,95,1,1,2,NA,NA,1,1,1,10,1270,0.59699,NA,1,0
6,3,2,2,8,96,4,1,4,NA,NA,4,4,0,0,1270,1.1512,NA,0,0
6,3,2,2,9,97,3,1,3,NA,NA,3,3,0,0,1270,1.1001,NA,1,0
6,3,2,2,9,98,5,2,3,NA,NA,3,3,1,10,1280,5.2269,NA,1,0
6,3,2,2,9,99,5,3,2,NA,NA,2,2,0,0,1280,0.54823,NA,0,0
6,3,2,2,9,100,4,4,1,NA,NA,1,1,0,0,1280,0.59266,NA,1,0
6,3,2,2,9,101,2,3,4,NA,NA,3,3,0,0,1280,1.3236,NA,1,0
6,3,2,2,9,102,2,4,3,NA,NA,4,4,0,0,1280,0.87467,NA,0,0
6,3,2,2,9,103,6,2,4,NA,NA,2,2,0,0,1280,0.70723,NA,1,0
6,3,2,2,9,104,3,3,1,NA,NA,1,1,1,10,1290,0.87353,NA,0,0
6,3,2,2,9,105,1,2,1,NA,NA,1,1,1,10,1300,0.48327,NA,1,0
6,3,2,2,9,106,4,1,4,NA,NA,1,1,0,0,1300,0.43315,NA,1,0
6,3,2,2,9,107,6,4,2,NA,NA,2,2,0,0,1300,1.5456,NA,1,0
6,3,2,2,9,108,1,1,2,NA,NA,2,2,0,0,1300,0.64973,NA,0,0
6,3,2,2,10,109,4,4,1,NA,NA,4,4,0,0,1300,1.3919,NA,0,0
6,3,2,2,10,110,2,3,4,NA,NA,4,4,1,10,1310,0.59976,NA,0,0
6,3,2,2,10,111,2,4,3,NA,NA,4,4,1,10,1320,1.2326,NA,0,0
6,3,2,2,10,112,1,1,2,NA,NA,1,1,1,10,1330,1.3035,NA,1,0
6,3,2,2,10,113,1,2,1,NA,NA,2,2,0,0,1330,0.83832,NA,0,0
6,3,2,2,10,114,5,2,3,NA,NA,3,3,1,10,1340,0.88784,NA,1,0
6,3,2,2,10,115,3,1,3,NA,NA,1,1,1,10,1350,0.783,NA,0,0
6,3,2,2,10,116,3,3,1,NA,NA,3,3,1,10,1360,0.68166,NA,1,0
6,3,2,2,10,117,6,4,2,NA,NA,2,2,0,0,1360,0.65752,NA,1,0
6,3,2,2,10,118,6,2,4,NA,NA,4,4,1,10,1370,0.73728,NA,0,0
6,3,2,2,10,119,4,1,4,NA,NA,1,1,0,0,1370,0.87873,NA,1,0
6,3,2,2,10,120,5,3,2,NA,NA,2,2,0,0,1370,1.3834,NA,0,0
6,3,2,3,1,1,7,3,1,2,4,1,1,1,10,1380,2.7858,NA,NA,0
6,3,2,3,1,2,7,3,1,4,2,2,2,1,10,1390,0.41298,NA,NA,0
6,3,2,3,1,3,7,2,3,4,1,3,3,0,0,1390,0.61627,NA,NA,0
6,3,2,3,1,4,7,4,3,2,1,4,4,0,0,1390,0.66634,NA,NA,0
6,3,2,3,1,5,7,4,2,3,1,2,2,0,0,1390,0.48711,NA,NA,0
6,3,2,3,1,6,7,4,2,1,3,1,1,1,10,1400,0.48623,NA,NA,0
6,3,2,3,1,7,7,2,1,4,3,4,4,0,0,1400,1.9573,NA,NA,0
6,3,2,3,1,8,7,1,3,2,4,2,2,0,0,1400,0.79441,NA,NA,0
6,3,2,3,1,9,7,2,3,4,1,3,3,1,10,1410,0.74153,NA,NA,0
6,3,2,3,1,10,7,1,4,2,3,1,1,1,10,1420,0.53031,NA,NA,0
6,3,2,3,1,11,7,3,4,1,2,4,4,1,10,1430,0.4236,NA,NA,0
6,3,2,3,1,12,7,1,3,4,2,2,2,0,0,1430,0.24282,NA,NA,0
6,3,2,3,1,13,7,4,1,3,2,3,3,1,10,1440,0.48312,NA,NA,0
6,3,2,3,1,14,7,3,2,1,4,1,1,1,10,1450,0.95451,NA,NA,0
6,3,2,3,1,15,7,1,4,2,3,4,4,1,10,1460,0.65528,NA,NA,0
6,3,2,3,1,16,7,3,1,2,4,2,2,0,0,1460,0.41497,NA,NA,0
6,3,2,3,1,17,7,1,3,4,2,3,3,1,10,1470,0.48153,NA,NA,0
6,3,2,3,1,18,7,1,3,2,4,1,1,1,10,1480,0.57689,NA,NA,0
6,3,2,3,1,19,7,1,4,2,3,4,4,0,0,1480,0.47645,NA,NA,0
6,3,2,3,1,20,7,3,1,4,2,2,2,0,0,1480,0.14102,NA,NA,0
6,3,2,4,1,1,1,1,NA,NA,NA,NA,NA,NA,NA,NA,NA,69.8333,NA,0
6,3,2,4,1,2,2,2,NA,NA,NA,NA,NA,NA,NA,NA,NA,30,NA,0
6,3,2,4,1,3,3,3,NA,NA,NA,NA,NA,NA,NA,NA,NA,59,NA,0
6,3,2,4,1,4,4,4,NA,NA,NA,NA,NA,NA,NA,NA,NA,22.8333,NA,0
7,1,2,1,1,1,2,3,4,NA,NA,3,3,1,10,10,2.5146,NA,1,0
7,1,2,1,1,2,2,3,4,NA,NA,3,3,1,10,20,1.5803,NA,1,0
7,1,2,1,1,3,2,4,3,NA,NA,4,4,0,0,20,1.0609,NA,0,0
7,1,2,1,1,4,1,2,1,NA,NA,1,1,0,0,20,1.1703,NA,1,0
7,1,2,1,1,5,1,1,2,NA,NA,2,2,0,0,20,0.51591,NA,0,0
7,1,2,1,1,6,2,4,3,NA,NA,3,3,1,10,30,0.55044,NA,1,0
7,1,2,1,1,7,2,3,4,NA,NA,4,4,0,0,30,0.94648,NA,0,0
7,1,2,1,1,8,1,2,1,NA,NA,2,2,1,10,40,0.89231,NA,0,0
7,1,2,1,1,9,1,2,1,NA,NA,2,2,0,0,40,1.4182,NA,0,0
7,1,2,1,1,10,1,2,1,NA,NA,1,1,1,10,50,0.45018,NA,1,0
7,1,2,1,1,11,1,2,1,NA,NA,1,1,0,0,50,0.65066,NA,1,0
7,1,2,1,1,12,1,2,1,NA,NA,2,2,1,10,60,0.9255,NA,0,0
7,1,2,1,1,13,1,2,1,NA,NA,1,1,1,10,70,1.6253,NA,1,0
7,1,2,1,1,14,1,1,2,NA,NA,2,2,0,0,70,1.0884,NA,0,0
7,1,2,1,1,15,2,3,4,NA,NA,3,3,1,10,80,1.0672,NA,1,0
7,1,2,1,1,16,2,4,3,NA,NA,3,3,1,10,90,1.6269,NA,1,0
7,1,2,1,1,17,1,1,2,NA,NA,1,1,1,10,100,1.3864,NA,1,0
7,1,2,1,1,18,1,1,2,NA,NA,2,2,0,0,100,0.81872,NA,0,0
7,1,2,1,1,19,1,1,2,NA,NA,1,1,0,0,100,0.57858,NA,1,0
7,1,2,1,1,20,1,1,2,NA,NA,2,2,0,0,100,0.81284,NA,0,0
7,1,2,1,1,21,1,2,1,NA,NA,2,2,1,10,110,0.92429,NA,0,0
7,1,2,1,1,22,1,1,2,NA,NA,1,1,1,10,120,0.66415,NA,1,0
7,1,2,1,1,23,2,4,3,NA,NA,3,3,1,10,130,0.96729,NA,1,0
7,1,2,1,1,24,1,1,2,NA,NA,1,1,1,10,140,0.88729,NA,1,0
7,1,2,1,1,25,2,3,4,NA,NA,3,3,1,10,150,0.66152,NA,1,0
7,1,2,1,1,26,1,1,2,NA,NA,1,1,1,10,160,0.61995,NA,1,0
7,1,2,1,1,27,1,2,1,NA,NA,2,2,0,0,160,1.1872,NA,0,0
7,1,2,1,1,28,1,2,1,NA,NA,1,1,1,10,170,0.36433,NA,1,0
7,1,2,1,1,29,2,4,3,NA,NA,3,3,0,0,170,0.63133,NA,1,0
7,1,2,1,1,30,1,1,2,NA,NA,1,1,1,10,180,0.52637,NA,1,0
7,1,2,1,2,31,2,3,4,NA,NA,4,4,0,0,180,0.63479,NA,0,0
7,1,2,1,2,32,2,3,4,NA,NA,4,4,0,0,180,0.91382,NA,0,0
7,1,2,1,2,33,2,4,3,NA,NA,3,3,1,10,190,0.51736,NA,1,0
7,1,2,1,2,34,1,1,2,NA,NA,1,1,0,0,190,0.46745,NA,1,0
7,1,2,1,2,35,1,2,1,NA,NA,2,2,0,0,190,0.69499,NA,0,0
7,1,2,1,2,36,1,2,1,NA,NA,1,1,1,10,200,0.84384,NA,1,0
7,1,2,1,2,37,1,1,2,NA,NA,2,2,0,0,200,0.66527,NA,0,0
7,1,2,1,2,38,1,2,1,NA,NA,1,1,1,10,210,0.51931,NA,1,0
7,1,2,1,2,39,2,4,3,NA,NA,4,4,0,0,210,1.7009,NA,0,0
7,1,2,1,2,40,2,4,3,NA,NA,3,3,1,10,220,0.75141,NA,1,0
7,1,2,1,2,41,2,4,3,NA,NA,3,3,1,10,230,0.7135,NA,1,0
7,1,2,1,2,42,1,1,2,NA,NA,1,1,1,10,240,1.4379,NA,1,0
7,1,2,1,2,43,1,2,1,NA,NA,1,1,0,0,240,0.66817,NA,1,0
7,1,2,1,2,44,1,1,2,NA,NA,2,2,1,10,250,0.90607,NA,0,0
7,1,2,1,2,45,1,1,2,NA,NA,2,2,0,0,250,0.62316,NA,0,0
7,1,2,1,2,46,2,3,4,NA,NA,3,3,1,10,260,0.55013,NA,1,0
7,1,2,1,2,47,1,2,1,NA,NA,1,1,1,10,270,0.41743,NA,1,0
7,1,2,1,2,48,2,3,4,NA,NA,3,3,1,10,280,0.41653,NA,1,0
7,1,2,1,2,49,2,4,3,NA,NA,3,3,1,10,290,0.47342,NA,1,0
7,1,2,1,2,50,1,2,1,NA,NA,1,1,0,0,290,0.36649,NA,1,0
7,1,2,1,2,51,1,1,2,NA,NA,1,1,0,0,290,0.65824,NA,1,0
7,1,2,1,2,52,1,2,1,NA,NA,2,2,1,10,300,0.45708,NA,0,0
7,1,2,1,2,53,1,1,2,NA,NA,2,2,1,10,310,0.44856,NA,0,0
7,1,2,1,2,54,1,2,1,NA,NA,2,2,0,0,310,0.80772,NA,0,0
7,1,2,1,2,55,2,3,4,NA,NA,4,4,1,10,320,0.55997,NA,0,0
7,1,2,1,2,56,1,2,1,NA,NA,1,1,1,10,330,0.31487,NA,1,0
7,1,2,1,2,57,1,2,1,NA,NA,2,2,0,0,330,0.54291,NA,0,0
7,1,2,1,2,58,1,1,2,NA,NA,1,1,1,10,340,0.7315,NA,1,0
7,1,2,1,2,59,1,1,2,NA,NA,1,1,1,10,350,0.35818,NA,1,0
7,1,2,1,2,60,1,1,2,NA,NA,1,1,1,10,360,0.24117,NA,1,0
7,1,2,1,3,61,1,2,1,NA,NA,1,1,1,10,370,0.76061,NA,1,0
7,1,2,1,3,62,2,3,4,NA,NA,3,3,1,10,380,0.48303,NA,1,0
7,1,2,1,3,63,1,2,1,NA,NA,1,1,1,10,390,0.41631,NA,1,0
7,1,2,1,3,64,1,1,2,NA,NA,1,1,1,10,400,0.66488,NA,1,0
7,1,2,1,3,65,2,3,4,NA,NA,3,3,0,0,400,0.54332,NA,1,0
7,1,2,1,3,66,1,1,2,NA,NA,2,2,0,0,400,1.0489,NA,0,0
7,1,2,1,3,67,1,2,1,NA,NA,1,1,1,10,410,0.79903,NA,1,0
7,1,2,1,3,68,1,1,2,NA,NA,2,2,1,10,420,0.3441,NA,0,0
7,1,2,1,3,69,1,1,2,NA,NA,1,1,1,10,430,0.53167,NA,1,0
7,1,2,1,3,70,1,1,2,NA,NA,1,1,0,0,430,0.58243,NA,1,0
7,1,2,1,3,71,2,3,4,NA,NA,3,3,1,10,440,0.41612,NA,1,0
7,1,2,1,3,72,1,2,1,NA,NA,1,1,0,0,440,0.4073,NA,1,0
7,1,2,1,3,73,1,2,1,NA,NA,2,2,0,0,440,0.74446,NA,0,0
7,1,2,1,3,74,1,1,2,NA,NA,1,1,0,0,440,1.0595,NA,1,0
7,1,2,1,3,75,1,2,1,NA,NA,1,1,1,10,450,1.3539,NA,1,0
7,1,2,1,3,76,2,4,3,NA,NA,3,3,1,10,460,0.47566,NA,1,0
7,1,2,1,3,77,1,1,2,NA,NA,1,1,1,10,470,0.36982,NA,1,0
7,1,2,1,3,78,1,1,2,NA,NA,2,2,0,0,470,0.72313,NA,0,0
7,1,2,1,3,79,2,3,4,NA,NA,3,3,0,0,470,0.64724,NA,1,0
7,1,2,1,3,80,1,1,2,NA,NA,1,1,1,10,480,0.54156,NA,1,0
7,1,2,1,3,81,1,2,1,NA,NA,1,1,1,10,490,0.4565,NA,1,0
7,1,2,1,3,82,1,2,1,NA,NA,1,1,0,0,490,0.39945,NA,1,0
7,1,2,1,3,83,1,2,1,NA,NA,2,2,0,0,490,0.65604,NA,0,0
7,1,2,1,3,84,2,4,3,NA,NA,3,3,1,10,500,0.4228,NA,1,0
7,1,2,1,3,85,2,4,3,NA,NA,3,3,1,10,510,0.61558,NA,1,0
7,1,2,1,3,86,1,1,2,NA,NA,1,1,1,10,520,1.0345,NA,1,0
7,1,2,1,3,87,2,4,3,NA,NA,3,3,1,10,530,0.61789,NA,1,0
7,1,2,1,3,88,2,3,4,NA,NA,3,3,1,10,540,0.5776,NA,1,0
7,1,2,1,3,89,2,4,3,NA,NA,3,3,1,10,550,0.57203,NA,1,0
7,1,2,1,3,90,1,2,1,NA,NA,1,1,1,10,560,0.8221,NA,1,0
7,1,2,1,4,91,2,4,3,NA,NA,3,3,1,10,570,0.36614,NA,1,0
7,1,2,1,4,92,2,3,4,NA,NA,3,3,1,10,580,0.64628,NA,1,0
7,1,2,1,4,93,1,2,1,NA,NA,1,1,1,10,590,0.57358,NA,1,0
7,1,2,1,4,94,1,2,1,NA,NA,1,1,1,10,600,0.68765,NA,1,0
7,1,2,1,4,95,2,3,4,NA,NA,3,3,0,0,600,0.39719,NA,1,0
7,1,2,1,4,96,1,1,2,NA,NA,2,2,1,10,610,0.55728,NA,0,0
7,1,2,1,4,97,2,3,4,NA,NA,4,4,0,0,610,0.76015,NA,0,0
7,1,2,1,4,98,2,4,3,NA,NA,4,4,0,0,610,0.67517,NA,0,0
7,1,2,1,4,99,1,2,1,NA,NA,2,2,0,0,610,0.50498,NA,0,0
7,1,2,1,4,100,2,4,3,NA,NA,3,3,1,10,620,0.33315,NA,1,0
7,1,2,1,4,101,1,1,2,NA,NA,1,1,1,10,630,0.32116,NA,1,0
7,1,2,1,4,102,2,3,4,NA,NA,3,3,1,10,640,0.34037,NA,1,0
7,1,2,1,4,103,1,1,2,NA,NA,1,1,1,10,650,0.18465,NA,1,0
7,1,2,1,4,104,1,2,1,NA,NA,1,1,1,10,660,1.01,NA,1,0
7,1,2,1,4,105,2,4,3,NA,NA,3,3,1,10,670,0.33811,NA,1,0
7,1,2,1,4,106,2,3,4,NA,NA,3,3,1,10,680,0.31021,NA,1,0
7,1,2,1,4,107,1,2,1,NA,NA,1,1,0,0,680,0.37867,NA,1,0
7,1,2,1,4,108,1,1,2,NA,NA,2,2,0,0,680,0.54148,NA,0,0
7,1,2,1,4,109,1,2,1,NA,NA,1,1,1,10,690,0.28081,NA,1,0
7,1,2,1,4,110,1,2,1,NA,NA,1,1,1,10,700,0.49424,NA,1,0
7,1,2,1,4,111,1,1,2,NA,NA,2,2,1,10,710,0.56292,NA,0,0
7,1,2,1,4,112,1,1,2,NA,NA,2,2,0,0,710,0.19686,NA,0,0
7,1,2,1,4,113,1,1,2,NA,NA,1,1,1,10,720,0.54954,NA,1,0
7,1,2,1,4,114,1,2,1,NA,NA,1,1,0,0,720,0.21686,NA,1,0
7,1,2,1,4,115,1,2,1,NA,NA,2,2,1,10,730,0.5525,NA,0,0
7,1,2,1,4,116,2,4,3,NA,NA,3,3,0,0,730,0.36324,NA,1,0
7,1,2,1,4,117,1,1,2,NA,NA,1,1,1,10,740,0.14959,NA,1,0
7,1,2,1,4,118,1,1,2,NA,NA,2,2,0,0,740,0.42501,NA,0,0
7,1,2,1,4,119,1,2,1,NA,NA,1,1,0,0,740,0.20152,NA,1,0
7,1,2,1,4,120,1,1,2,NA,NA,2,2,1,10,750,0.27479,NA,0,0
7,1,2,1,5,121,1,2,1,NA,NA,2,2,0,0,750,0.44097,NA,0,0
7,1,2,1,5,122,1,1,2,NA,NA,1,1,0,0,750,0.29626,NA,1,0
7,1,2,1,5,123,1,1,2,NA,NA,2,2,0,0,750,0.51667,NA,0,0
7,1,2,1,5,124,1,2,1,NA,NA,1,1,1,10,760,0.24088,NA,1,0
7,1,2,1,5,125,2,4,3,NA,NA,3,3,1,10,770,0.30449,NA,1,0
7,1,2,1,5,126,2,4,3,NA,NA,3,3,0,0,770,0.76561,NA,1,0
7,1,2,1,5,127,2,3,4,NA,NA,4,4,0,0,770,0.31104,NA,0,0
7,1,2,1,5,128,1,2,1,NA,NA,1,1,1,10,780,0.28358,NA,1,0
7,1,2,1,5,129,1,1,2,NA,NA,1,1,0,0,780,0.66555,NA,1,0
7,1,2,1,5,130,1,1,2,NA,NA,1,1,1,10,790,0.28723,NA,1,0
7,1,2,1,5,131,2,3,4,NA,NA,4,4,0,0,790,0.5577,NA,0,0
7,1,2,1,5,132,1,1,2,NA,NA,1,1,1,10,800,0.3005,NA,1,0
7,1,2,1,5,133,1,2,1,NA,NA,2,2,0,0,800,0.76415,NA,0,0
7,1,2,1,5,134,1,1,2,NA,NA,2,2,1,10,810,0.5907,NA,0,0
7,1,2,1,5,135,1,1,2,NA,NA,2,2,0,0,810,0.79929,NA,0,0
7,1,2,1,5,136,2,3,4,NA,NA,3,3,1,10,820,0.31686,NA,1,0
7,1,2,1,5,137,1,1,2,NA,NA,1,1,1,10,830,0.38387,NA,1,0
7,1,2,1,5,138,2,4,3,NA,NA,3,3,1,10,840,0.42969,NA,1,0
7,1,2,1,5,139,1,2,1,NA,NA,1,1,0,0,840,0.31682,NA,1,0
7,1,2,1,5,140,2,4,3,NA,NA,3,3,1,10,850,0.45056,NA,1,0
7,1,2,1,5,141,2,3,4,NA,NA,3,3,1,10,860,0.55957,NA,1,0
7,1,2,1,5,142,2,3,4,NA,NA,3,3,1,10,870,0.72291,NA,1,0
7,1,2,1,5,143,2,4,3,NA,NA,4,4,0,0,870,0.247,NA,0,0
7,1,2,1,5,144,1,2,1,NA,NA,1,1,1,10,880,0.4532,NA,1,0
7,1,2,1,5,145,1,2,1,NA,NA,1,1,1,10,890,0.67639,NA,1,0
7,1,2,1,5,146,1,1,2,NA,NA,2,2,1,10,900,0.33068,NA,0,0
7,1,2,1,5,147,1,2,1,NA,NA,1,1,1,10,910,0.29436,NA,1,0
7,1,2,1,5,148,1,2,1,NA,NA,1,1,1,10,920,0.3878,NA,1,0
7,1,2,1,5,149,1,1,2,NA,NA,2,2,1,10,930,0.38171,NA,0,0
7,1,2,1,5,150,1,2,1,NA,NA,1,1,0,0,930,0.32571,NA,1,0
7,1,2,2,1,1,5,3,2,NA,NA,3,3,1,10,940,2.2657,NA,1,0
7,1,2,2,1,2,1,2,1,NA,NA,1,1,1,10,950,2.1112,NA,1,0
7,1,2,2,1,3,6,2,4,NA,NA,2,2,0,0,950,2.3863,NA,1,0
7,1,2,2,1,4,3,3,1,NA,NA,1,1,1,10,960,0.93429,NA,0,0
7,1,2,2,1,5,3,1,3,NA,NA,3,3,1,10,970,0.53335,NA,1,0
7,1,2,2,1,6,4,4,1,NA,NA,1,1,1,10,980,0.21699,NA,1,0
7,1,2,2,1,7,1,1,2,NA,NA,2,2,0,0,980,0.34624,NA,0,0
7,1,2,2,1,8,6,4,2,NA,NA,4,4,0,0,980,0.29307,NA,0,0
7,1,2,2,1,9,5,2,3,NA,NA,3,3,0,0,980,0.23372,NA,1,0
7,1,2,2,1,10,2,4,3,NA,NA,3,3,1,10,990,0.24962,NA,1,0
7,1,2,2,1,11,2,3,4,NA,NA,3,3,1,10,1000,0.21702,NA,1,0
7,1,2,2,1,12,4,1,4,NA,NA,1,1,0,0,1000,0.70576,NA,1,0
7,1,2,2,2,13,6,4,2,NA,NA,4,4,0,0,1000,0.59016,NA,0,0
7,1,2,2,2,14,1,2,1,NA,NA,1,1,0,0,1000,0.47977,NA,1,0
7,1,2,2,2,15,6,2,4,NA,NA,4,4,0,0,1000,0.81319,NA,0,0
7,1,2,2,2,16,3,3,1,NA,NA,1,1,0,0,1000,0.47691,NA,0,0
7,1,2,2,2,17,2,3,4,NA,NA,3,3,0,0,1000,0.41925,NA,1,0
7,1,2,2,2,18,5,2,3,NA,NA,3,3,1,10,1010,0.21699,NA,1,0
7,1,2,2,2,19,4,1,4,NA,NA,1,1,1,10,1020,0.64354,NA,1,0
7,1,2,2,2,20,2,4,3,NA,NA,3,3,0,0,1020,0.4663,NA,1,0
7,1,2,2,2,21,4,4,1,NA,NA,1,1,0,0,1020,0.59243,NA,1,0
7,1,2,2,2,22,5,3,2,NA,NA,3,3,1,10,1030,0.46603,NA,1,0
7,1,2,2,2,23,3,1,3,NA,NA,1,1,1,10,1040,0.2642,NA,0,0
7,1,2,2,2,24,1,1,2,NA,NA,1,1,0,0,1040,0.25039,NA,1,0
7,1,2,2,3,25,1,2,1,NA,NA,1,1,0,0,1040,0.21715,NA,1,0
7,1,2,2,3,26,2,4,3,NA,NA,3,3,1,10,1050,0.62945,NA,1,0
7,1,2,2,3,27,4,4,1,NA,NA,1,1,1,10,1060,0.42878,NA,1,0
7,1,2,2,3,28,3,1,3,NA,NA,3,3,1,10,1070,0.41248,NA,1,0
7,1,2,2,3,29,5,3,2,NA,NA,3,3,1,10,1080,0.3973,NA,1,0
7,1,2,2,3,30,3,3,1,NA,NA,3,3,0,0,1080,0.43771,NA,1,0
7,1,2,2,3,31,5,2,3,NA,NA,3,3,0,0,1080,0.32522,NA,1,0
7,1,2,2,3,32,1,1,2,NA,NA,1,1,1,10,1090,0.31723,NA,1,0
7,1,2,2,3,33,2,3,4,NA,NA,3,3,1,10,1100,0.40688,NA,1,0
7,1,2,2,3,34,6,4,2,NA,NA,2,2,1,10,1110,0.71178,NA,1,0
7,1,2,2,3,35,6,2,4,NA,NA,4,4,0,0,1110,0.89992,NA,0,0
7,1,2,2,3,36,4,1,4,NA,NA,1,1,0,0,1110,0.497,NA,1,0
7,1,2,2,4,37,1,2,1,NA,NA,1,1,1,10,1120,0.17814,NA,1,0
7,1,2,2,4,38,2,4,3,NA,NA,3,3,1,10,1130,0.6927,NA,1,0
7,1,2,2,4,39,4,4,1,NA,NA,1,1,0,0,1130,0.41675,NA,1,0
7,1,2,2,4,40,3,1,3,NA,NA,3,3,1,10,1140,0.56154,NA,1,0
7,1,2,2,4,41,1,1,2,NA,NA,1,1,1,10,1150,0.2517,NA,1,0
7,1,2,2,4,42,4,1,4,NA,NA,1,1,0,0,1150,0.2668,NA,1,0
7,1,2,2,4,43,3,3,1,NA,NA,3,3,1,10,1160,0.72224,NA,1,0
7,1,2,2,4,44,5,2,3,NA,NA,3,3,1,10,1170,0.26703,NA,1,0
7,1,2,2,4,45,5,3,2,NA,NA,3,3,1,10,1180,0.23337,NA,1,0
7,1,2,2,4,46,6,4,2,NA,NA,2,2,1,10,1190,0.74637,NA,1,0
7,1,2,2,4,47,6,2,4,NA,NA,2,2,1,10,1200,0.44568,NA,1,0
7,1,2,2,4,48,2,3,4,NA,NA,3,3,1,10,1210,0.94045,NA,1,0
7,1,2,2,5,49,3,1,3,NA,NA,1,1,0,0,1210,0.42345,NA,0,0
7,1,2,2,5,50,2,3,4,NA,NA,3,3,1,10,1220,4.4719,NA,1,0
7,1,2,2,5,51,4,1,4,NA,NA,1,1,1,10,1230,0.24983,NA,1,0
7,1,2,2,5,52,6,4,2,NA,NA,4,4,1,10,1240,0.44847,NA,0,0
7,1,2,2,5,53,3,3,1,NA,NA,3,3,1,10,1250,0.56718,NA,1,0
7,1,2,2,5,54,1,2,1,NA,NA,2,2,0,0,1250,0.48039,NA,0,0
7,1,2,2,5,55,2,4,3,NA,NA,3,3,1,10,1260,0.33436,NA,1,0
7,1,2,2,5,56,5,2,3,NA,NA,3,3,1,10,1270,0.28361,NA,1,0
7,1,2,2,5,57,5,3,2,NA,NA,3,3,1,10,1280,0.18335,NA,1,0
7,1,2,2,5,58,4,4,1,NA,NA,1,1,1,10,1290,0.57832,NA,1,0
7,1,2,2,5,59,1,1,2,NA,NA,1,1,1,10,1300,0.29988,NA,1,0
7,1,2,2,5,60,6,2,4,NA,NA,4,4,0,0,1300,0.65707,NA,0,0
7,1,2,2,6,61,6,4,2,NA,NA,4,4,1,10,1310,0.33302,NA,0,0
7,1,2,2,6,62,5,3,2,NA,NA,3,3,1,10,1320,1.3079,NA,1,0
7,1,2,2,6,63,1,1,2,NA,NA,1,1,1,10,1330,0.51086,NA,1,0
7,1,2,2,6,64,4,1,4,NA,NA,1,1,0,0,1330,0.32354,NA,1,0
7,1,2,2,6,65,3,1,3,NA,NA,1,1,1,10,1340,2.144,NA,0,0
7,1,2,2,6,66,2,3,4,NA,NA,4,4,0,0,1340,1.3381,NA,0,0
7,1,2,2,6,67,4,4,1,NA,NA,4,4,0,0,1340,0.64484,NA,0,0
7,1,2,2,6,68,3,3,1,NA,NA,3,3,1,10,1350,0.43659,NA,1,0
7,1,2,2,6,69,1,2,1,NA,NA,2,2,1,10,1360,0.66762,NA,0,0
7,1,2,2,6,70,2,4,3,NA,NA,3,3,1,10,1370,0.40101,NA,1,0
7,1,2,2,6,71,5,2,3,NA,NA,3,3,1,10,1380,0.36251,NA,1,0
7,1,2,2,6,72,6,2,4,NA,NA,4,4,0,0,1380,0.73979,NA,0,0
7,1,2,2,7,73,3,1,3,NA,NA,3,3,1,10,1390,0.36781,NA,1,0
7,1,2,2,7,74,3,3,1,NA,NA,1,1,1,10,1400,0.24955,NA,0,0
7,1,2,2,7,75,6,2,4,NA,NA,2,2,1,10,1410,0.38489,NA,1,0
7,1,2,2,7,76,4,1,4,NA,NA,1,1,0,0,1410,0.44204,NA,1,0
7,1,2,2,7,77,1,2,1,NA,NA,1,1,0,0,1410,0.32936,NA,1,0
7,1,2,2,7,78,6,4,2,NA,NA,2,2,0,0,1410,0.50918,NA,1,0
7,1,2,2,7,79,4,4,1,NA,NA,1,1,1,10,1420,0.38485,NA,1,0
7,1,2,2,7,80,5,3,2,NA,NA,3,3,1,10,1430,0.48255,NA,1,0
7,1,2,2,7,81,2,3,4,NA,NA,4,4,0,0,1430,0.78334,NA,0,0
7,1,2,2,7,82,1,1,2,NA,NA,1,1,1,10,1440,0.72814,NA,1,0
7,1,2,2,7,83,2,4,3,NA,NA,3,3,0,0,1440,0.32406,NA,1,0
7,1,2,2,7,84,5,2,3,NA,NA,3,3,1,10,1450,0.55886,NA,1,0
7,1,2,2,8,85,5,3,2,NA,NA,3,3,1,10,1460,0.38539,NA,1,0
7,1,2,2,8,86,1,1,2,NA,NA,1,1,1,10,1470,0.38689,NA,1,0
7,1,2,2,8,87,6,4,2,NA,NA,2,2,0,0,1470,0.49276,NA,1,0
7,1,2,2,8,88,4,4,1,NA,NA,1,1,0,0,1470,0.298,NA,1,0
7,1,2,2,8,89,2,4,3,NA,NA,3,3,1,10,1480,0.34967,NA,1,0
7,1,2,2,8,90,2,3,4,NA,NA,3,3,1,10,1490,0.31281,NA,1,0
7,1,2,2,8,91,6,2,4,NA,NA,4,4,0,0,1490,0.34835,NA,0,0
7,1,2,2,8,92,3,1,3,NA,NA,1,1,1,10,1500,0.36699,NA,0,0
7,1,2,2,8,93,4,1,4,NA,NA,1,1,0,0,1500,0.45744,NA,1,0
7,1,2,2,8,94,3,3,1,NA,NA,3,3,1,10,1510,0.32862,NA,1,0
7,1,2,2,8,95,5,2,3,NA,NA,3,3,0,0,1510,0.47695,NA,1,0
7,1,2,2,8,96,1,2,1,NA,NA,1,1,0,0,1510,0.35463,NA,1,0
7,1,2,2,9,97,2,3,4,NA,NA,3,3,1,10,1520,0.30974,NA,1,0
7,1,2,2,9,98,6,4,2,NA,NA,4,4,0,0,1520,0.91419,NA,0,0
7,1,2,2,9,99,5,3,2,NA,NA,3,3,0,0,1520,0.83745,NA,1,0
7,1,2,2,9,100,4,1,4,NA,NA,1,1,1,10,1530,0.33318,NA,1,0
7,1,2,2,9,101,1,1,2,NA,NA,1,1,1,10,1540,0.2962,NA,1,0
7,1,2,2,9,102,1,2,1,NA,NA,1,1,1,10,1550,0.66262,NA,1,0
7,1,2,2,9,103,3,3,1,NA,NA,1,1,1,10,1560,0.31553,NA,0,0
7,1,2,2,9,104,5,2,3,NA,NA,3,3,1,10,1570,0.57668,NA,1,0
7,1,2,2,9,105,3,1,3,NA,NA,3,3,0,0,1570,0.23456,NA,1,0
7,1,2,2,9,106,4,4,1,NA,NA,1,1,0,0,1570,0.19379,NA,1,0
7,1,2,2,9,107,6,2,4,NA,NA,4,4,0,0,1570,0.37277,NA,0,0
7,1,2,2,9,108,2,4,3,NA,NA,3,3,1,10,1580,0.32624,NA,1,0
7,1,2,2,10,109,2,3,4,NA,NA,4,4,0,0,1580,0.37858,NA,0,0
7,1,2,2,10,110,2,4,3,NA,NA,3,3,0,0,1580,0.54105,NA,1,0
7,1,2,2,10,111,6,2,4,NA,NA,4,4,0,0,1580,0.22459,NA,0,0
7,1,2,2,10,112,5,2,3,NA,NA,3,3,1,10,1590,0.28947,NA,1,0
7,1,2,2,10,113,1,2,1,NA,NA,1,1,0,0,1590,0.37518,NA,1,0
7,1,2,2,10,114,5,3,2,NA,NA,3,3,0,0,1590,0.38517,NA,1,0
7,1,2,2,10,115,1,1,2,NA,NA,2,2,0,0,1590,0.35398,NA,0,0
7,1,2,2,10,116,4,1,4,NA,NA,1,1,1,10,1600,0.36487,NA,1,0
7,1,2,2,10,117,6,4,2,NA,NA,4,4,1,10,1610,0.39073,NA,0,0
7,1,2,2,10,118,3,3,1,NA,NA,3,3,1,10,1620,0.37623,NA,1,0
7,1,2,2,10,119,4,4,1,NA,NA,1,1,1,10,1630,0.20336,NA,1,0
7,1,2,2,10,120,3,1,3,NA,NA,1,1,1,10,1640,0.40327,NA,0,0
7,1,2,3,1,1,7,4,1,3,2,3,3,1,10,1650,1.205,NA,NA,0
7,1,2,3,1,2,7,2,3,4,1,1,1,1,10,1660,0.23297,NA,NA,0
7,1,2,3,1,3,7,1,3,4,2,4,4,0,0,1660,0.17217,NA,NA,0
7,1,2,3,1,4,7,4,3,1,2,2,2,1,10,1670,0.18342,NA,NA,0
7,1,2,3,1,5,7,1,4,2,3,1,1,1,10,1680,0.048771,NA,NA,0
7,1,2,3,1,6,7,2,3,4,1,1,1,1,10,1690,0.22444,NA,NA,0
7,1,2,3,1,7,7,1,4,3,2,3,3,1,10,1700,0.15932,NA,NA,0
7,1,2,3,1,8,7,4,3,1,2,3,3,0,0,1700,0.2005,NA,NA,0
7,1,2,3,1,9,7,1,4,3,2,3,3,1,10,1710,0.21686,NA,NA,0
7,1,2,3,1,10,7,2,1,4,3,3,3,1,10,1720,0.36412,NA,NA,0
7,1,2,3,1,11,7,3,2,4,1,2,2,1,10,1730,0.2502,NA,NA,0
7,1,2,3,1,12,7,2,4,1,3,1,1,1,10,1740,0.21641,NA,NA,0
7,1,2,3,1,13,7,4,1,3,2,4,4,0,0,1740,0.20029,NA,NA,0
7,1,2,3,1,14,7,2,3,1,4,1,1,1,10,1750,0.25052,NA,NA,0
7,1,2,3,1,15,7,2,4,1,3,4,4,0,0,1750,0.19992,NA,NA,0
7,1,2,3,1,16,7,3,1,2,4,2,2,0,0,1750,0.20027,NA,NA,0
7,1,2,3,1,17,7,3,1,4,2,3,3,1,10,1760,0.18353,NA,NA,0
7,1,2,3,1,18,7,3,4,1,2,4,4,0,0,1760,0.38373,NA,NA,0
7,1,2,3,1,19,7,4,1,2,3,1,1,0,0,1760,0.19985,NA,NA,0
7,1,2,3,1,20,7,4,2,3,1,2,2,0,0,1760,0.16682,NA,NA,0
7,1,2,4,1,1,1,1,NA,NA,NA,NA,NA,NA,NA,NA,NA,59,NA,0
7,1,2,4,1,2,2,2,NA,NA,NA,NA,NA,NA,NA,NA,NA,41.1667,NA,0
7,1,2,4,1,3,3,3,NA,NA,NA,NA,NA,NA,NA,NA,NA,63.6667,NA,0
7,1,2,4,1,4,4,4,NA,NA,NA,NA,NA,NA,NA,NA,NA,48,NA,0
9,3,2,1,1,1,2,4,3,NA,NA,4,4,1,10,10,1.7867,NA,0,0
9,3,2,1,1,2,2,4,3,NA,NA,3,3,0,0,10,0.81899,NA,1,0
9,3,2,1,1,3,2,3,4,NA,NA,4,4,1,10,20,0.48564,NA,0,0
9,3,2,1,1,4,2,4,3,NA,NA,4,4,0,0,20,0.33346,NA,0,0
9,3,2,1,1,5,1,1,2,NA,NA,1,1,1,10,30,0.99545,NA,1,0
9,3,2,1,1,6,1,1,2,NA,NA,2,2,0,0,30,0.74326,NA,0,0
9,3,2,1,1,7,1,2,1,NA,NA,1,1,1,10,40,0.3327,NA,1,0
9,3,2,1,1,8,1,2,1,NA,NA,2,2,0,0,40,0.50744,NA,0,0
9,3,2,1,1,9,1,1,2,NA,NA,1,1,0,0,40,1.1382,NA,1,0
9,3,2,1,1,10,1,1,2,NA,NA,1,1,1,10,50,1.6004,NA,1,0
9,3,2,1,1,11,2,4,3,NA,NA,4,4,1,10,60,1.2275,NA,0,0
9,3,2,1,1,12,1,2,1,NA,NA,1,1,1,10,70,0.79856,NA,1,0
9,3,2,1,1,13,2,3,4,NA,NA,4,4,0,0,70,1.1134,NA,0,0
9,3,2,1,1,14,1,1,2,NA,NA,2,2,0,0,70,0.65668,NA,0,0
9,3,2,1,1,15,2,3,4,NA,NA,4,4,0,0,70,0.95447,NA,0,0
9,3,2,1,1,16,1,1,2,NA,NA,1,1,0,0,70,0.68701,NA,1,0
9,3,2,1,1,17,2,4,3,NA,NA,3,3,0,0,70,0.47979,NA,1,0
9,3,2,1,1,18,1,1,2,NA,NA,1,1,0,0,70,0.55198,NA,1,0
9,3,2,1,1,19,2,3,4,NA,NA,4,4,0,0,70,1.0857,NA,0,0
9,3,2,1,1,20,1,2,1,NA,NA,1,1,1,10,80,0.50987,NA,1,0
9,3,2,1,1,21,1,1,2,NA,NA,1,1,1,10,90,0.42939,NA,1,0
9,3,2,1,1,22,1,2,1,NA,NA,2,2,1,10,100,0.65516,NA,0,0
9,3,2,1,1,23,1,2,1,NA,NA,1,1,1,10,110,0.44927,NA,1,0
9,3,2,1,1,24,1,2,1,NA,NA,1,1,0,0,110,0.30579,NA,1,0
9,3,2,1,1,25,2,3,4,NA,NA,3,3,1,10,120,1.3851,NA,1,0
9,3,2,1,1,26,1,2,1,NA,NA,1,1,1,10,130,0.37242,NA,1,0
9,3,2,1,1,27,1,1,2,NA,NA,2,2,1,10,140,1.6656,NA,0,0
9,3,2,1,1,28,1,2,1,NA,NA,1,1,1,10,150,0.81025,NA,1,0
9,3,2,1,1,29,1,1,2,NA,NA,2,2,0,0,150,0.86126,NA,0,0
9,3,2,1,1,30,1,2,1,NA,NA,1,1,0,0,150,0.90239,NA,1,0
9,3,2,1,2,31,1,1,2,NA,NA,1,1,1,10,160,0.2836,NA,1,0
9,3,2,1,2,32,1,1,2,NA,NA,2,2,0,0,160,0.5658,NA,0,0
9,3,2,1,2,33,2,4,3,NA,NA,3,3,0,0,160,1.1063,NA,1,0
9,3,2,1,2,34,2,4,3,NA,NA,4,4,0,0,160,0.60973,NA,0,0
9,3,2,1,2,35,2,3,4,NA,NA,4,4,0,0,160,0.58167,NA,0,0
9,3,2,1,2,36,2,3,4,NA,NA,4,4,0,0,160,0.9214,NA,0,0
9,3,2,1,2,37,1,2,1,NA,NA,1,1,1,10,170,0.61632,NA,1,0
9,3,2,1,2,38,2,3,4,NA,NA,4,4,1,10,180,0.79447,NA,0,0
9,3,2,1,2,39,2,3,4,NA,NA,3,3,1,10,190,0.65451,NA,1,0
9,3,2,1,2,40,1,2,1,NA,NA,2,2,0,0,190,1.0316,NA,0,0
9,3,2,1,2,41,1,1,2,NA,NA,1,1,1,10,200,0.48213,NA,1,0
9,3,2,1,2,42,1,2,1,NA,NA,2,2,0,0,200,0.84271,NA,0,0
9,3,2,1,2,43,1,2,1,NA,NA,1,1,1,10,210,0.54029,NA,1,0
9,3,2,1,2,44,1,1,2,NA,NA,1,1,0,0,210,1.5623,NA,1,0
9,3,2,1,2,45,1,2,1,NA,NA,2,2,0,0,210,1.8317,NA,0,0
9,3,2,1,2,46,1,2,1,NA,NA,1,1,1,10,220,0.47344,NA,1,0
9,3,2,1,2,47,2,4,3,NA,NA,3,3,1,10,230,0.87376,NA,1,0
9,3,2,1,2,48,1,1,2,NA,NA,1,1,1,10,240,0.70628,NA,1,0
9,3,2,1,2,49,2,4,3,NA,NA,3,3,1,10,250,2.2329,NA,1,0
9,3,2,1,2,50,1,2,1,NA,NA,1,1,1,10,260,0.97964,NA,1,0
9,3,2,1,2,51,1,1,2,NA,NA,1,1,1,10,270,0.63219,NA,1,0
9,3,2,1,2,52,1,1,2,NA,NA,2,2,1,10,280,1.3863,NA,0,0
9,3,2,1,2,53,1,1,2,NA,NA,1,1,1,10,290,0.75714,NA,1,0
9,3,2,1,2,54,1,1,2,NA,NA,1,1,1,10,300,0.65852,NA,1,0
9,3,2,1,2,55,2,4,3,NA,NA,3,3,0,0,300,0.73134,NA,1,0
9,3,2,1,2,56,2,3,4,NA,NA,4,4,0,0,300,0.96974,NA,0,0
9,3,2,1,2,57,1,2,1,NA,NA,1,1,1,10,310,1.0215,NA,1,0
9,3,2,1,2,58,1,2,1,NA,NA,2,2,0,0,310,0.68841,NA,0,0
9,3,2,1,2,59,1,2,1,NA,NA,1,1,0,0,310,0.46474,NA,1,0
9,3,2,1,2,60,1,1,2,NA,NA,1,1,1,10,320,0.68909,NA,1,0
9,3,2,1,3,61,1,2,1,NA,NA,2,2,0,0,320,0.74506,NA,0,0
9,3,2,1,3,62,2,4,3,NA,NA,4,4,0,0,320,0.51094,NA,0,0
9,3,2,1,3,63,1,2,1,NA,NA,1,1,0,0,320,0.57432,NA,1,0
9,3,2,1,3,64,2,4,3,NA,NA,3,3,1,10,330,1.1715,NA,1,0
9,3,2,1,3,65,2,4,3,NA,NA,3,3,1,10,340,0.84745,NA,1,0
9,3,2,1,3,66,2,4,3,NA,NA,3,3,1,10,350,0.68186,NA,1,0
9,3,2,1,3,67,1,1,2,NA,NA,1,1,0,0,350,0.48165,NA,1,0
9,3,2,1,3,68,1,1,2,NA,NA,1,1,1,10,360,0.85019,NA,1,0
9,3,2,1,3,69,1,2,1,NA,NA,2,2,0,0,360,0.41816,NA,0,0
9,3,2,1,3,70,1,1,2,NA,NA,1,1,0,0,360,0.30154,NA,1,0
9,3,2,1,3,71,1,2,1,NA,NA,1,1,1,10,370,0.21239,NA,1,0
9,3,2,1,3,72,1,1,2,NA,NA,1,1,1,10,380,0.23157,NA,1,0
9,3,2,1,3,73,2,3,4,NA,NA,4,4,1,10,390,0.7059,NA,0,0
9,3,2,1,3,74,1,2,1,NA,NA,2,2,0,0,390,1.0014,NA,0,0
9,3,2,1,3,75,1,2,1,NA,NA,1,1,1,10,400,0.24951,NA,1,0
9,3,2,1,3,76,1,1,2,NA,NA,2,2,1,10,410,0.22218,NA,0,0
9,3,2,1,3,77,1,1,2,NA,NA,1,1,1,10,420,0.32867,NA,1,0
9,3,2,1,3,78,1,2,1,NA,NA,2,2,0,0,420,0.2161,NA,0,0
9,3,2,1,3,79,2,3,4,NA,NA,4,4,0,0,420,0.88862,NA,0,0
9,3,2,1,3,80,2,3,4,NA,NA,3,3,1,10,430,0.24016,NA,1,0
9,3,2,1,3,81,1,2,1,NA,NA,1,1,1,10,440,0.64212,NA,1,0
9,3,2,1,3,82,1,2,1,NA,NA,2,2,0,0,440,0.20463,NA,0,0
9,3,2,1,3,83,1,2,1,NA,NA,2,2,0,0,440,0.19952,NA,0,0
9,3,2,1,3,84,1,1,2,NA,NA,1,1,0,0,440,0.21623,NA,1,0
9,3,2,1,3,85,1,1,2,NA,NA,2,2,1,10,450,0.23376,NA,0,0
9,3,2,1,3,86,1,1,2,NA,NA,2,2,1,10,460,0.2803,NA,0,0
9,3,2,1,3,87,2,3,4,NA,NA,3,3,1,10,470,0.52676,NA,1,0
9,3,2,1,3,88,2,4,3,NA,NA,4,4,1,10,480,0.33405,NA,0,0
9,3,2,1,3,89,1,1,2,NA,NA,1,1,1,10,490,0.81237,NA,1,0
9,3,2,1,3,90,2,3,4,NA,NA,3,3,0,0,490,0.42417,NA,1,0
9,3,2,1,4,91,1,2,1,NA,NA,1,1,1,10,500,0.3144,NA,1,0
9,3,2,1,4,92,1,1,2,NA,NA,1,1,1,10,510,0.25758,NA,1,0
9,3,2,1,4,93,1,1,2,NA,NA,2,2,1,10,520,0.63421,NA,0,0
9,3,2,1,4,94,2,4,3,NA,NA,3,3,0,0,520,0.65271,NA,1,0
9,3,2,1,4,95,2,3,4,NA,NA,4,4,0,0,520,0.28602,NA,0,0
9,3,2,1,4,96,2,3,4,NA,NA,3,3,1,10,530,0.21694,NA,1,0
9,3,2,1,4,97,1,2,1,NA,NA,1,1,0,0,530,0.75213,NA,1,0
9,3,2,1,4,98,2,3,4,NA,NA,3,3,0,0,530,0.62937,NA,1,0
9,3,2,1,4,99,1,1,2,NA,NA,1,1,1,10,540,0.76891,NA,1,0
9,3,2,1,4,100,1,1,2,NA,NA,1,1,0,0,540,0.69334,NA,1,0
9,3,2,1,4,101,1,2,1,NA,NA,1,1,1,10,550,0.40465,NA,1,0
9,3,2,1,4,102,2,4,3,NA,NA,3,3,0,0,550,0.62487,NA,1,0
9,3,2,1,4,103,2,3,4,NA,NA,4,4,1,10,560,0.8749,NA,0,0
9,3,2,1,4,104,1,2,1,NA,NA,1,1,1,10,570,0.74776,NA,1,0
9,3,2,1,4,105,1,2,1,NA,NA,1,1,0,0,570,0.31361,NA,1,0
9,3,2,1,4,106,2,4,3,NA,NA,4,4,1,10,580,0.85563,NA,0,0
9,3,2,1,4,107,1,1,2,NA,NA,2,2,0,0,580,0.74526,NA,0,0
9,3,2,1,4,108,1,1,2,NA,NA,2,2,0,0,580,0.62343,NA,0,0
9,3,2,1,4,109,1,2,1,NA,NA,1,1,1,10,590,1.9696,NA,1,0
9,3,2,1,4,110,1,2,1,NA,NA,1,1,1,10,600,0.74964,NA,1,0
9,3,2,1,4,111,1,1,2,NA,NA,1,1,1,10,610,0.28294,NA,1,0
9,3,2,1,4,112,2,4,3,NA,NA,3,3,1,10,620,1.412,NA,1,0
9,3,2,1,4,113,2,3,4,NA,NA,4,4,0,0,620,0.59901,NA,0,0
9,3,2,1,4,114,1,1,2,NA,NA,1,1,0,0,620,0.61016,NA,1,0
9,3,2,1,4,115,1,2,1,NA,NA,2,2,1,10,630,0.23362,NA,0,0
9,3,2,1,4,116,1,1,2,NA,NA,1,1,0,0,630,0.38396,NA,1,0
9,3,2,1,4,117,1,2,1,NA,NA,2,2,0,0,630,0.37143,NA,0,0
9,3,2,1,4,118,2,4,3,NA,NA,4,4,0,0,630,0.84072,NA,0,0
9,3,2,1,4,119,1,2,1,NA,NA,1,1,0,0,630,0.75414,NA,1,0
9,3,2,1,4,120,1,1,2,NA,NA,2,2,1,10,640,0.37568,NA,0,0
9,3,2,1,5,121,2,4,3,NA,NA,3,3,0,0,640,0.69907,NA,1,0
9,3,2,1,5,122,2,4,3,NA,NA,4,4,0,0,640,0.47455,NA,0,0
9,3,2,1,5,123,2,4,3,NA,NA,3,3,1,10,650,0.2912,NA,1,0
9,3,2,1,5,124,1,1,2,NA,NA,1,1,1,10,660,1.9311,NA,1,0
9,3,2,1,5,125,1,1,2,NA,NA,2,2,1,10,670,0.24939,NA,0,0
9,3,2,1,5,126,1,1,2,NA,NA,2,2,0,0,670,0.21626,NA,0,0
9,3,2,1,5,127,1,2,1,NA,NA,1,1,1,10,680,0.23756,NA,1,0
9,3,2,1,5,128,2,3,4,NA,NA,4,4,1,10,690,0.69534,NA,0,0
