SubNo,Group(1=OptHighReward;2=OptLowReward),Block_trial,Block,VarDist_cond,Run_number,Targ1_position,Targ2_position,Red_targ_digit,Blue_targ_digit,Response,Targ_Choice,Acc,OutcomeCond(0=inaccurate;1=lowReward;2=highReward),OutcomeValue,Points,RT,Optimal_Choice,Repeat_Switch
1,1,1,1,1,1,28,46,3,2,3,1,1,1.0,0.45,0.45,2608,0.0,
1,1,2,1,1,2,33,19,3,4,3,1,1,1.0,0.3,0.75,1770,0.0,1.0
1,1,3,1,2,1,28,41,4,2,4,1,1,2.0,0.56,1.31,1373,1.0,1.0
1,1,4,1,2,2,9,30,2,3,3,2,1,1.0,0.53,1.84,1040,0.0,2.0
1,1,5,1,1,1,14,4,4,5,4,1,1,1.0,0.36,2.2,2460,0.0,2.0
1,1,6,1,1,2,47,37,5,3,3,2,1,2.0,1.06,3.26,2757,1.0,2.0
1,1,7,1,1,3,46,39,4,2,4,1,1,1.0,0.64,3.9,2390,0.0,2.0
1,1,8,1,1,4,21,19,2,5,3,0,0,0.0,0.0,3.9,1542,,
1,1,9,1,1,5,13,36,2,3,2,1,1,1.0,0.5,4.4,1537,0.0,
1,1,10,1,2,1,36,3,3,2,3,1,1,2.0,0.65,5.05,2753,1.0,1.0
1,1,11,1,1,1,9,19,3,2,3,1,1,1.0,0.52,5.57,3232,0.0,1.0
1,1,12,1,1,2,51,43,3,5,3,1,1,1.0,0.48,6.05,4008,0.0,1.0
1,1,13,1,1,3,51,16,4,5,4,1,1,1.0,0.59,6.64,945,0.0,1.0
1,1,14,1,1,4,53,42,5,2,3,0,0,0.0,0.0,6.64,1458,,
1,1,15,1,1,5,16,25,2,5,2,1,1,1.0,0.43,7.07,9650,0.0,
1,1,16,1,1,6,22,1,2,5,3,0,0,0.0,0.0,7.07,1961,,
1,1,17,1,2,1,45,47,5,4,5,1,1,2.0,1.53,8.6,3881,1.0,
1,1,18,1,2,2,52,17,3,4,4,2,1,1.0,0.48,9.08,3159,0.0,2.0
1,1,19,1,2,3,52,45,2,4,4,2,1,1.0,0.51,9.59,2998,0.0,1.0
1,1,20,1,2,4,21,24,2,4,4,2,1,1.0,0.63,10.22,1447,0.0,1.0
1,1,21,1,2,5,2,48,2,3,3,2,1,1.0,0.51,10.73,5648,0.0,1.0
1,1,22,1,2,6,26,42,5,3,3,2,1,1.0,0.49,11.22,5162,0.0,1.0
1,1,23,1,1,1,8,6,5,2,5,1,1,1.0,0.4,11.62,3464,0.0,2.0
1,1,24,1,1,2,25,28,4,3,4,1,1,1.0,0.53,12.15,1270,0.0,1.0
1,1,25,1,1,3,36,11,2,3,3,2,1,2.0,0.84,12.99,6529,1.0,2.0
1,1,26,1,1,4,33,21,5,4,4,2,1,2.0,1.27,14.26,2638,1.0,1.0
1,1,27,1,2,1,15,12,5,3,3,2,1,1.0,0.42,14.68,2537,0.0,1.0
1,1,28,1,2,2,6,49,4,2,3,0,0,0.0,0.0,14.68,3740,,
1,1,29,1,2,3,9,21,3,4,4,2,1,1.0,0.6,15.28,1752,0.0,
1,1,30,1,2,4,23,54,2,5,5,2,1,1.0,0.65,15.93,3531,0.0,1.0
1,1,31,1,2,5,28,36,4,5,5,2,1,1.0,0.31,16.24,4752,0.0,1.0
1,1,32,1,1,1,27,4,2,4,2,1,1,1.0,0.33,16.57,3070,0.0,2.0
1,1,33,1,1,2,4,31,3,5,3,1,1,1.0,0.57,17.14,15778,0.0,1.0
1,1,34,1,1,3,26,7,3,5,5,2,1,2.0,0.31,17.45,2862,1.0,2.0
1,1,35,1,2,1,21,33,4,3,4,1,1,2.0,0.83,18.28,11040,1.0,2.0
1,1,36,1,2,2,47,49,2,5,2,1,1,2.0,0.88,19.16,2257,1.0,1.0
1,1,37,1,2,3,39,1,5,3,5,1,1,2.0,0.84,20.0,2568,1.0,1.0
1,1,38,1,2,4,39,49,3,4,4,2,1,1.0,0.65,20.65,8017,0.0,2.0
1,1,39,1,1,1,1,52,4,5,5,2,1,2.0,0.82,21.47,5122,1.0,1.0
1,1,40,1,2,1,50,16,2,4,4,2,1,1.0,0.64,22.11,3104,0.0,1.0
1,1,41,1,2,2,12,18,4,3,3,2,1,1.0,0.36,22.47,3180,0.0,1.0
1,1,42,1,2,3,29,20,3,4,4,2,1,1.0,0.5,22.97,2131,0.0,1.0
1,1,43,1,1,1,35,32,5,4,5,1,1,1.0,0.48,23.45,5123,0.0,2.0
1,1,44,1,2,1,31,5,5,2,2,2,1,1.0,0.31,23.76,6095,0.0,2.0
1,1,45,1,2,2,29,5,2,5,5,2,1,1.0,0.53,24.29,2284,0.0,1.0
1,1,46,1,2,3,54,24,4,5,4,1,1,2.0,0.0,24.29,5227,1.0,2.0
1,1,47,1,2,4,17,2,3,4,4,2,1,1.0,0.67,24.96,6327,0.0,2.0
1,1,48,1,2,5,1,53,3,2,2,2,1,1.0,0.41,25.37,5216,0.0,1.0
1,1,49,1,1,1,28,2,5,3,3,2,1,2.0,0.75,26.12,4642,1.0,1.0
1,1,50,1,1,2,24,17,4,2,2,2,1,2.0,0.6,26.72,3080,1.0,1.0
1,1,51,1,1,3,21,49,5,2,2,2,1,2.0,0.07,26.79,1544,1.0,1.0
1,1,52,1,1,4,16,28,4,5,4,1,1,1.0,0.24,27.03,3904,0.0,2.0
1,1,53,1,2,1,38,13,2,3,3,2,1,1.0,0.49,27.52,4120,0.0,2.0
1,1,54,1,2,2,44,14,5,4,4,2,1,1.0,0.38,27.9,1240,0.0,1.0
1,1,55,1,2,3,50,15,5,4,4,2,1,1.0,0.57,28.47,2271,0.0,1.0
1,1,56,1,1,1,24,32,5,4,5,1,1,1.0,0.56,29.03,3367,0.0,2.0
1,1,57,1,1,2,49,29,2,4,2,1,1,1.0,0.7,29.73,3968,0.0,1.0
1,1,58,1,1,3,39,19,3,2,3,1,1,1.0,0.57,30.3,3776,0.0,1.0
1,1,59,1,1,4,19,35,3,5,3,1,1,1.0,0.42,30.72,7049,0.0,1.0
1,1,60,1,1,5,52,18,2,4,2,1,1,1.0,0.54,31.26,4478,0.0,1.0
1,1,61,1,2,1,49,42,2,4,2,1,1,2.0,0.02,31.28,1757,1.0,1.0
1,1,62,1,2,2,33,30,4,5,5,2,1,1.0,0.5,31.78,7255,0.0,2.0
1,1,63,1,1,1,15,43,2,5,2,1,1,1.0,0.49,32.27,17242,0.0,2.0
1,1,64,1,1,2,5,28,5,2,5,1,1,1.0,0.5,32.77,3813,0.0,1.0
1,1,65,1,2,1,35,37,5,3,5,1,1,2.0,0.35,33.12,6112,1.0,1.0
1,1,66,1,2,2,33,38,4,2,2,2,1,1.0,0.63,33.75,6823,0.0,2.0
1,1,67,1,2,3,42,47,5,2,2,2,1,1.0,0.28,34.03,1166,0.0,1.0
1,1,68,1,2,4,28,39,4,3,4,1,1,2.0,0.7,34.73,7903,1.0,2.0
1,1,69,1,1,1,54,33,4,3,4,1,1,1.0,0.61,35.34,8864,0.0,1.0
1,1,70,1,1,2,37,36,5,3,5,1,1,1.0,0.59,35.93,3520,0.0,1.0
1,1,71,1,1,3,10,8,5,4,5,1,1,1.0,0.57,36.5,2904,0.0,1.0
1,1,72,1,2,1,18,15,3,5,5,2,1,1.0,0.5,37.0,2105,0.0,2.0
1,1,73,1,1,1,46,22,4,3,4,1,1,1.0,0.58,37.58,2582,0.0,2.0
1,1,74,1,1,2,7,21,2,3,2,1,1,1.0,0.57,38.15,2513,0.0,1.0
1,1,75,1,1,3,52,32,2,3,2,1,1,1.0,0.47,38.62,10958,0.0,1.0
1,1,76,1,1,4,22,29,3,5,3,1,1,1.0,0.46,39.08,5174,0.0,1.0
1,1,77,1,1,5,25,22,4,3,3,2,1,2.0,0.36,39.44,3642,1.0,2.0
1,1,78,1,1,6,30,24,4,2,2,2,1,2.0,0.39,39.83,3129,1.0,1.0
1,1,79,1,2,1,30,41,5,2,5,1,1,2.0,0.56,40.39,8089,1.0,2.0
1,1,80,1,2,2,52,2,3,2,2,2,1,1.0,0.54,40.93,4248,0.0,2.0
1,1,81,1,2,3,44,8,3,5,3,1,1,2.0,1.18,42.11,5200,1.0,2.0
1,1,82,1,2,4,18,7,4,2,2,2,1,1.0,0.46,42.57,2239,0.0,2.0
1,1,83,1,2,5,17,42,3,4,3,1,1,2.0,0.79,43.36,3577,1.0,2.0
1,1,84,1,2,6,50,27,3,2,2,2,1,1.0,0.59,43.95,3740,0.0,2.0
1,1,1,2,2,1,51,7,5,2,2,2,1,1.0,0.61,44.56,2417,0.0,
1,1,2,2,2,2,42,2,4,2,2,2,1,1.0,0.38,44.94,2880,0.0,1.0
1,1,3,2,2,3,50,37,5,4,5,1,1,2.0,0.6,45.54,5883,1.0,2.0
1,1,4,2,2,4,33,54,2,3,3,2,1,1.0,0.53,46.07,3594,0.0,2.0
1,1,5,2,2,5,49,19,5,2,2,2,1,1.0,0.38,46.45,3065,0.0,1.0
1,1,6,2,2,6,31,54,3,2,3,1,1,2.0,0.15,46.6,6273,1.0,2.0
1,1,7,2,1,1,1,15,2,3,2,1,1,1.0,0.63,47.23,4056,0.0,1.0
1,1,8,2,1,2,17,33,2,3,2,1,1,1.0,0.48,47.71,2569,0.0,1.0
1,1,9,2,1,3,17,2,2,5,2,1,1,1.0,0.55,48.26,2337,0.0,1.0
1,1,10,2,1,4,29,9,2,5,2,1,1,1.0,0.51,48.77,2569,0.0,1.0
1,1,11,2,2,1,52,2,4,3,3,2,1,1.0,0.43,49.2,5768,0.0,2.0
1,1,12,2,2,2,18,10,3,2,2,2,1,1.0,0.43,49.63,4271,0.0,1.0
1,1,13,2,2,3,37,6,2,5,5,2,1,1.0,0.55,50.18,2247,0.0,1.0
1,1,14,2,2,4,5,43,5,2,2,2,1,1.0,0.39,50.57,3288,0.0,1.0
1,1,15,2,2,5,33,31,4,5,5,2,1,1.0,0.59,51.16,8103,0.0,1.0
1,1,16,2,1,1,30,2,3,5,5,2,1,2.0,0.77,51.93,3544,1.0,1.0
1,1,17,2,1,2,27,8,2,4,4,2,1,2.0,0.11,52.04,2281,1.0,1.0
1,1,18,2,1,3,18,6,2,5,5,2,1,2.0,0.37,52.41,1106,1.0,1.0
1,1,19,2,1,4,33,3,2,4,4,2,1,2.0,0.96,53.37,2649,1.0,1.0
1,1,20,2,1,5,16,2,4,2,2,2,1,2.0,0.26,53.63,1816,1.0,1.0
1,1,21,2,1,6,15,28,3,5,5,2,1,2.0,0.65,54.28,2112,1.0,1.0
1,1,22,2,2,1,11,38,3,5,5,2,1,1.0,0.53,54.81,3764,0.0,1.0
1,1,23,2,2,2,39,42,4,5,4,1,1,2.0,0.51,55.32,8985,1.0,2.0
1,1,24,2,1,1,6,20,5,2,2,2,1,2.0,0.03,55.35,6769,1.0,2.0
1,1,25,2,1,2,27,32,4,3,3,2,1,2.0,0.05,55.4,3240,1.0,1.0
1,1,26,2,2,1,2,9,5,2,2,2,1,1.0,0.46,55.86,3241,0.0,1.0
1,1,27,2,2,2,45,47,2,4,4,2,1,1.0,0.36,56.22,5672,0.0,1.0
1,1,28,2,2,3,41,27,5,4,4,2,1,1.0,0.38,56.6,2912,0.0,1.0
1,1,29,2,1,1,18,2,3,4,4,2,1,2.0,1.19,57.79,4734,1.0,1.0
1,1,30,2,2,1,29,7,3,5,5,2,1,1.0,0.51,58.3,4312,0.0,1.0
1,1,31,2,1,1,21,50,2,3,3,2,1,2.0,0.48,58.78,3728,1.0,1.0
1,1,32,2,1,2,43,44,5,3,3,2,1,2.0,0.38,59.16,2581,1.0,1.0
1,1,33,2,1,3,45,54,3,4,3,1,1,1.0,0.61,59.77,6862,0.0,2.0
1,1,34,2,2,1,13,17,2,4,4,2,1,1.0,0.52,60.29,4320,0.0,2.0
1,1,35,2,2,2,18,30,4,5,5,2,1,1.0,0.58,60.87,2784,0.0,1.0
1,1,36,2,2,3,21,7,4,2,2,2,1,1.0,0.36,61.23,3406,0.0,1.0
1,1,37,2,2,4,27,20,2,5,5,2,1,1.0,0.45,61.68,1602,0.0,1.0
1,1,38,2,1,1,30,34,3,4,3,1,1,1.0,0.47,62.15,7136,0.0,2.0
1,1,39,2,1,2,20,54,3,2,2,2,1,2.0,0.94,63.09,6638,1.0,2.0
1,1,40,2,1,3,38,20,2,5,2,1,1,1.0,0.5,63.59,2920,0.0,2.0
1,1,41,2,1,4,29,20,4,5,4,1,1,1.0,0.42,64.01,5053,0.0,1.0
1,1,42,2,1,5,23,7,5,3,5,1,1,1.0,0.59,64.6,1511,0.0,1.0
1,1,43,2,2,1,21,15,3,2,2,2,1,1.0,0.53,65.13,2768,0.0,2.0
1,1,44,2,2,2,50,1,5,3,3,2,1,1.0,0.38,65.51,1877,0.0,1.0
1,1,45,2,2,3,18,17,4,5,5,2,1,1.0,0.66,66.17,2752,0.0,1.0
1,1,46,2,2,4,28,10,3,2,2,2,1,1.0,0.53,66.7,2935,0.0,1.0
1,1,47,2,2,5,45,29,4,3,3,2,1,1.0,0.67,67.37,2261,0.0,1.0
1,1,48,2,1,1,24,49,3,5,3,1,1,1.0,0.63,68.0,4025,0.0,2.0
1,1,49,2,1,2,25,44,4,5,4,1,1,1.0,0.42,68.42,2936,0.0,1.0
1,1,50,2,1,3,22,29,2,3,3,2,1,2.0,0.47,68.89,7288,1.0,2.0
1,1,51,2,1,4,35,46,4,3,3,2,1,2.0,0.34,69.23,7651,1.0,1.0
1,1,52,2,1,5,52,13,4,3,3,2,1,2.0,0.1,69.33,4016,1.0,1.0
1,1,53,2,1,6,21,25,3,5,5,2,1,2.0,0.73,70.06,1790,1.0,1.0
1,1,54,2,2,1,34,5,5,2,2,2,1,1.0,0.68,70.74,1749,0.0,1.0
1,1,55,2,2,2,37,36,3,4,4,2,1,1.0,0.44,71.18,5539,0.0,1.0
1,1,56,2,2,3,54,42,4,3,3,2,1,1.0,0.4,71.58,2400,0.0,1.0
1,1,57,2,1,1,36,28,5,2,2,2,1,2.0,0.38,71.96,3089,1.0,1.0
1,1,58,2,1,2,40,15,5,3,3,2,1,2.0,0.81,72.77,1149,1.0,1.0
1,1,59,2,1,3,53,41,2,4,4,2,1,2.0,0.1,72.87,3384,1.0,1.0
1,1,60,2,2,1,6,15,4,2,2,2,1,1.0,0.36,73.23,3809,0.0,1.0
1,1,61,2,1,1,15,24,3,4,4,2,1,2.0,0.44,73.67,1567,1.0,1.0
1,1,62,2,2,1,18,51,2,5,5,2,1,1.0,0.49,74.16,4672,0.0,1.0
1,1,63,2,2,2,32,3,2,4,4,2,1,1.0,0.56,74.72,2809,0.0,1.0
1,1,64,2,2,3,28,6,5,4,4,2,1,1.0,0.43,75.15,1978,0.0,1.0
1,1,65,2,2,4,22,33,3,4,4,2,1,1.0,0.48,75.63,4423,0.0,1.0
1,1,66,2,1,1,49,42,3,4,4,2,1,2.0,0.3,75.93,7768,1.0,1.0
1,1,67,2,1,2,39,33,4,5,5,2,1,2.0,0.46,76.39,3980,1.0,1.0
1,1,68,2,1,3,43,49,3,2,2,2,1,2.0,1.22,77.61,2958,1.0,1.0
1,1,69,2,1,4,9,31,5,3,3,2,1,2.0,0.21,77.82,12033,1.0,1.0
1,1,70,2,1,5,18,21,2,4,4,2,1,2.0,0.72,78.54,1577,1.0,1.0
1,1,71,2,2,1,15,52,3,5,5,2,1,1.0,0.39,78.93,5223,0.0,1.0
1,1,72,2,2,2,10,34,5,4,4,2,1,1.0,0.5,79.43,8191,0.0,1.0
1,1,73,2,1,1,39,15,3,2,2,2,1,2.0,0.2,79.63,3681,1.0,1.0
1,1,74,2,1,2,41,11,5,3,5,1,1,1.0,0.56,80.19,6717,0.0,2.0
1,1,75,2,2,1,17,51,4,3,4,1,1,2.0,0.76,80.95,8375,1.0,1.0
1,1,76,2,2,2,20,48,4,2,4,1,1,2.0,0.4,81.35,1354,1.0,1.0
1,1,77,2,2,3,24,42,5,4,4,2,1,1.0,0.26,81.61,1352,0.0,2.0
1,1,78,2,2,4,38,21,4,2,2,2,1,1.0,0.52,82.13,1521,0.0,1.0
1,1,79,2,2,5,53,4,5,4,4,2,1,1.0,0.69,82.82,3072,0.0,1.0
1,1,80,2,2,6,25,23,4,2,2,2,1,1.0,0.62,83.44,4706,0.0,1.0
1,1,81,2,1,1,12,13,2,3,3,2,1,2.0,0.46,83.9,3638,1.0,1.0
1,1,82,2,1,2,16,46,5,3,3,2,1,2.0,0.18,84.08,1781,1.0,1.0
1,1,83,2,1,3,53,32,5,4,4,2,1,2.0,0.02,84.1,3700,1.0,1.0
1,1,84,2,1,4,52,38,2,3,3,2,1,2.0,0.64,84.74,3734,1.0,1.0
1,1,1,3,1,1,29,31,2,3,2,1,1,1.0,0.45,85.19,1465,0.0,
1,1,2,3,2,1,17,3,5,4,5,1,1,2.0,0.53,85.72,4369,1.0,1.0
1,1,3,3,2,2,23,20,3,5,5,2,1,1.0,0.46,86.18,5254,0.0,2.0
1,1,4,3,1,1,39,37,5,2,2,2,1,2.0,0.28,86.46,1365,1.0,1.0
1,1,5,3,1,2,2,49,3,4,4,2,1,2.0,0.67,87.13,2233,1.0,1.0
1,1,6,3,1,3,41,16,2,5,5,2,1,2.0,0.84,87.97,1942,1.0,1.0
1,1,7,3,1,4,1,20,2,4,2,1,1,1.0,0.75,88.72,6162,0.0,2.0
1,1,8,3,1,5,21,47,5,3,5,1,1,1.0,0.34,89.06,1574,0.0,1.0
1,1,9,3,1,6,16,39,4,3,4,1,1,1.0,0.38,89.44,4200,0.0,1.0
1,1,10,3,2,1,34,4,2,5,5,2,1,1.0,0.62,90.06,1334,0.0,2.0
1,1,11,3,2,2,19,3,4,2,2,2,1,1.0,0.45,90.51,5821,0.0,1.0
1,1,12,3,2,3,13,42,3,4,4,2,1,1.0,0.34,90.85,4966,0.0,1.0
1,1,13,3,2,4,31,29,3,2,2,2,1,1.0,0.54,91.39,3407,0.0,1.0
1,1,14,3,2,5,5,52,2,3,2,1,1,2.0,1.23,92.62,9167,1.0,2.0
1,1,15,3,2,6,46,26,2,3,3,2,1,1.0,0.58,93.2,6544,0.0,2.0
1,1,16,3,1,1,40,44,2,4,4,2,1,2.0,1.42,94.62,2876,1.0,1.0
1,1,17,3,1,2,10,44,5,2,2,2,1,2.0,0.74,95.36,1614,1.0,1.0
1,1,18,3,1,3,18,21,5,3,3,2,1,2.0,1.38,96.74,1711,1.0,1.0
1,1,19,3,1,4,3,4,4,3,3,2,1,2.0,0.34,97.08,2113,1.0,1.0
1,1,20,3,2,1,35,6,2,3,3,2,1,1.0,0.37,97.45,2943,0.0,1.0
1,1,21,3,2,2,41,29,4,2,2,2,1,1.0,0.48,97.93,3353,0.0,1.0
1,1,22,3,2,3,42,46,4,2,2,2,1,1.0,0.64,98.57,3737,0.0,1.0
1,1,23,3,2,4,44,16,5,2,2,2,1,1.0,0.37,98.94,2618,0.0,1.0
1,1,24,3,2,5,17,6,4,3,3,2,1,1.0,0.57,99.51,4601,0.0,1.0
1,1,25,3,1,1,3,37,3,2,2,2,1,2.0,0.22,99.73,1778,1.0,1.0
1,1,26,3,1,2,24,38,2,5,5,2,1,2.0,0.76,100.49,3704,1.0,1.0
1,1,27,3,1,3,50,3,2,3,3,2,1,2.0,0.54,101.03,5752,1.0,1.0
1,1,28,3,2,1,23,15,5,4,4,2,1,1.0,0.26,101.29,3232,0.0,1.0
1,1,29,3,1,1,15,39,2,5,5,2,1,2.0,0.27,101.56,2843,1.0,1.0
1,1,30,3,1,2,1,10,3,5,3,1,1,1.0,0.55,102.11,3944,0.0,2.0
1,1,31,3,1,3,33,13,4,3,3,2,1,2.0,0.35,102.46,3656,1.0,2.0
1,1,32,3,1,4,45,51,4,5,4,1,1,1.0,0.65,103.11,2919,0.0,2.0
1,1,33,3,1,5,43,30,2,4,4,2,1,2.0,0.2,103.31,2413,1.0,2.0
1,1,34,3,2,1,2,42,4,3,4,1,1,2.0,1.0,104.31,6477,1.0,2.0
1,1,35,3,2,2,5,37,4,3,4,1,1,2.0,0.45,104.76,2720,1.0,1.0
1,1,36,3,2,3,26,47,5,3,3,2,1,1.0,0.54,105.3,2769,0.0,2.0
1,1,37,3,2,4,19,24,2,4,4,2,1,1.0,0.61,105.91,1842,0.0,1.0
1,1,38,3,1,1,34,52,4,2,2,2,1,2.0,0.2,106.11,2809,1.0,1.0
1,1,39,3,1,2,38,52,3,2,3,1,1,1.0,0.42,106.53,7216,0.0,2.0
1,1,40,3,2,1,10,1,3,4,3,1,1,2.0,0.02,106.55,2606,1.0,1.0
1,1,41,3,2,2,29,24,4,5,3,0,0,0.0,0.0,106.55,3233,,
1,1,42,3,2,3,52,18,5,3,3,2,1,1.0,0.48,107.03,8983,0.0,
1,1,43,3,1,1,42,15,5,2,5,1,1,1.0,0.68,107.71,14352,0.0,2.0
1,1,44,3,1,2,33,11,2,5,2,1,1,1.0,0.5,108.21,4072,0.0,1.0
1,1,45,3,1,3,39,31,4,2,4,1,1,1.0,0.64,108.85,5865,0.0,1.0
1,1,46,3,1,4,41,27,3,5,3,1,1,1.0,0.42,109.27,3121,0.0,1.0
1,1,47,3,1,5,32,27,3,2,2,2,1,2.0,0.5,109.77,5514,1.0,2.0
1,1,48,3,1,6,3,16,5,4,4,2,1,2.0,0.13,109.9,4870,1.0,1.0
1,1,49,3,2,1,19,23,5,2,2,2,1,1.0,0.57,110.47,6057,0.0,1.0
1,1,50,3,2,2,6,52,5,4,5,1,1,2.0,0.38,110.85,7216,1.0,2.0
1,1,51,3,1,1,50,6,5,3,5,1,1,1.0,0.56,111.41,4391,0.0,1.0
1,1,52,3,1,2,25,8,3,2,2,2,1,2.0,0.81,112.22,7673,1.0,2.0
1,1,53,3,1,3,4,47,2,3,3,2,1,2.0,0.46,112.68,34513,1.0,1.0
1,1,54,3,1,4,29,13,4,5,5,2,1,2.0,0.92,113.6,10062,1.0,1.0
1,1,55,3,2,1,53,19,5,3,3,2,1,1.0,0.77,114.37,42210,0.0,1.0
1,1,56,3,2,2,49,24,3,5,5,2,1,1.0,0.56,114.93,2262,0.0,1.0
1,1,57,3,2,3,30,1,4,5,5,2,1,1.0,0.5,115.43,1385,0.0,1.0
1,1,58,3,2,4,5,35,5,4,4,2,1,1.0,0.61,116.04,2854,0.0,1.0
1,1,59,3,1,1,28,3,3,4,4,2,1,2.0,0.53,116.57,897,1.0,1.0
1,1,60,3,1,2,15,32,5,4,5,1,1,1.0,0.37,116.94,4656,0.0,2.0
1,1,61,3,1,3,43,8,4,5,4,1,1,1.0,0.56,117.5,13991,0.0,1.0
1,1,62,3,1,4,52,41,5,4,4,2,1,2.0,0.5,118.0,4206,1.0,2.0
1,1,63,3,1,5,1,51,2,4,4,2,1,2.0,0.37,118.37,3214,1.0,1.0
1,1,64,3,2,1,9,21,3,2,2,2,1,1.0,0.65,119.02,3522,0.0,1.0
1,1,65,3,1,1,32,51,4,2,4,1,1,1.0,0.72,119.74,4352,0.0,2.0
1,1,66,3,1,2,52,8,4,5,5,2,1,2.0,0.25,119.99,5312,1.0,2.0
1,1,67,3,1,3,31,37,3,5,3,1,1,1.0,0.51,120.5,6372,0.0,2.0
1,1,68,3,2,1,14,18,3,5,3,1,1,2.0,0.12,120.62,7729,1.0,1.0
1,1,69,3,2,2,44,49,5,2,2,2,1,1.0,0.58,121.2,8577,0.0,2.0
1,1,70,3,2,3,36,35,4,3,3,2,1,1.0,0.22,121.42,4345,0.0,1.0
1,1,71,3,2,4,19,45,3,4,4,2,1,1.0,0.62,122.04,4344,0.0,1.0
1,1,72,3,2,5,40,2,3,2,2,2,1,1.0,0.53,122.57,1713,0.0,1.0
1,1,73,3,2,6,15,2,3,4,4,2,1,1.0,0.53,123.1,2591,0.0,1.0
1,1,74,3,1,1,10,13,2,5,5,2,1,2.0,1.07,124.17,2336,1.0,1.0
1,1,75,3,2,1,33,42,4,5,4,1,1,2.0,0.37,124.54,4273,1.0,2.0
1,1,76,3,2,2,6,35,4,2,2,2,1,1.0,0.48,125.02,5190,0.0,2.0
1,1,77,3,2,3,45,16,2,4,4,2,1,1.0,0.35,125.37,1153,0.0,1.0
1,1,78,3,1,1,16,50,2,3,3,2,1,2.0,0.17,125.54,2352,1.0,1.0
1,1,79,3,1,2,33,48,2,4,2,1,1,1.0,0.53,126.07,4161,0.0,2.0
1,1,80,3,2,1,36,17,5,3,3,2,1,1.0,0.44,126.51,1480,0.0,2.0
1,1,81,3,2,2,8,16,3,4,4,2,1,1.0,0.34,126.85,1728,0.0,1.0
1,1,82,3,2,3,20,22,5,2,2,2,1,1.0,0.63,127.48,4510,0.0,1.0
1,1,83,3,2,4,33,29,3,5,3,1,1,2.0,0.16,127.64,4937,1.0,2.0
1,1,84,3,2,5,41,43,2,5,5,2,1,1.0,0.5,128.14,3487,0.0,2.0
2,2,1,1,1,1,1,4,2,5,2,1,1,2.0,0.3,0.3,7648,0.0,
2,2,2,1,2,1,46,17,5,4,5,1,1,1.0,0.3,0.6,1924,1.0,1.0
2,2,3,1,2,2,28,26,3,4,3,1,1,1.0,0.51,1.11,3405,1.0,1.0
2,2,4,1,1,1,41,14,2,4,2,1,1,2.0,0.64,1.75,2399,0.0,1.0
2,2,5,1,1,2,11,26,3,2,3,1,1,2.0,1.06,2.81,2863,0.0,1.0
2,2,6,1,2,1,35,7,2,4,2,1,1,1.0,0.64,3.45,3564,1.0,1.0
2,2,7,1,2,2,50,29,5,4,5,1,1,1.0,0.5,3.95,3522,1.0,1.0
2,2,8,1,2,3,12,11,3,4,3,1,1,1.0,0.54,4.49,5649,1.0,1.0
2,2,9,1,2,4,40,20,2,4,2,1,1,1.0,0.52,5.01,2224,1.0,1.0
2,2,10,1,2,5,18,28,5,2,5,1,1,1.0,0.48,5.49,6035,1.0,1.0
2,2,11,1,2,6,45,1,3,2,3,1,1,1.0,0.59,6.08,3746,1.0,1.0
2,2,12,1,1,1,14,40,5,3,5,1,1,2.0,0.22,6.3,3537,0.0,1.0
2,2,13,1,1,2,47,26,4,3,4,1,1,2.0,1.53,7.83,3159,0.0,1.0
2,2,14,1,1,3,43,12,3,2,3,1,1,2.0,0.44,8.27,2273,0.0,1.0
2,2,15,1,2,1,35,26,5,4,3,0,0,0.0,0.0,8.27,5442,,
2,2,16,1,2,2,32,18,3,5,3,1,1,1.0,0.51,8.78,3308,1.0,
2,2,17,1,2,3,32,21,3,2,3,1,1,1.0,0.63,9.41,5761,1.0,1.0
2,2,18,1,2,4,4,30,2,4,2,1,1,1.0,0.51,9.92,4114,1.0,1.0
2,2,19,1,2,5,26,31,5,3,5,1,1,1.0,0.49,10.41,2273,1.0,1.0
2,2,20,1,1,1,18,2,3,5,3,1,1,2.0,0.11,10.52,2722,0.0,1.0
2,2,21,1,1,2,22,42,4,3,4,1,1,2.0,0.64,11.16,2370,0.0,1.0
2,2,22,1,1,3,40,26,2,3,2,1,1,2.0,0.84,12.0,1937,0.0,1.0
2,2,23,1,1,4,30,29,2,3,2,1,1,2.0,1.27,13.27,3631,0.0,1.0
2,2,24,1,1,5,19,22,2,3,2,1,1,2.0,0.17,13.44,1489,0.0,1.0
2,2,25,1,2,1,10,2,2,5,2,1,1,1.0,0.6,14.04,2848,1.0,1.0
2,2,26,1,1,1,36,15,5,4,5,1,1,2.0,1.09,15.13,4952,0.0,1.0
2,2,27,1,1,2,46,35,2,4,2,1,1,2.0,0.77,15.9,7796,0.0,1.0
2,2,28,1,1,3,51,44,5,3,2,0,0,0.0,0.0,15.9,6868,,
2,2,29,1,1,4,39,12,5,2,5,1,1,2.0,0.31,16.21,5007,0.0,
2,2,30,1,2,1,19,45,3,5,3,1,1,1.0,0.58,16.79,4209,1.0,1.0
2,2,31,1,2,2,25,47,5,4,5,1,1,1.0,0.6,17.39,2450,1.0,1.0
2,2,32,1,2,3,31,3,2,5,2,1,1,1.0,0.58,17.97,2946,1.0,1.0
2,2,33,1,2,4,43,35,2,5,2,1,1,1.0,0.65,18.62,2617,1.0,1.0
2,2,34,1,1,1,5,35,2,3,2,1,1,2.0,0.82,19.44,7569,0.0,1.0
2,2,35,1,1,2,38,37,3,2,3,1,1,2.0,1.06,20.5,2724,0.0,1.0
2,2,36,1,1,3,18,39,5,2,5,1,1,2.0,0.49,20.99,2625,0.0,1.0
2,2,37,1,1,4,37,6,5,4,5,1,1,2.0,0.43,21.42,6050,0.0,1.0
2,2,38,1,1,5,33,31,4,3,4,1,1,2.0,0.62,22.04,2657,0.0,1.0
2,2,39,1,1,6,38,11,4,2,4,1,1,2.0,0.0,22.04,3590,0.0,1.0
2,2,40,1,2,1,32,31,4,5,4,1,1,1.0,0.67,22.71,4946,1.0,1.0
2,2,41,1,2,2,49,12,2,5,2,1,1,1.0,0.41,23.12,5089,1.0,1.0
2,2,42,1,2,3,34,46,5,3,5,1,1,1.0,0.56,23.68,3232,1.0,1.0
2,2,43,1,1,1,37,13,3,4,3,1,1,2.0,0.6,24.28,2034,0.0,1.0
2,2,44,1,1,2,15,40,3,2,3,1,1,2.0,0.07,24.35,9929,0.0,1.0
2,2,45,1,1,3,28,19,5,2,5,1,1,2.0,0.47,24.82,5009,0.0,1.0
2,2,46,1,1,4,8,53,5,4,5,1,1,2.0,0.02,24.84,1731,0.0,1.0
2,2,47,1,2,1,7,27,4,3,4,1,1,1.0,0.57,25.41,4594,1.0,1.0
2,2,48,1,1,1,34,2,5,2,5,1,1,2.0,0.74,26.15,8707,0.0,1.0
2,2,49,1,1,2,6,8,5,2,5,1,1,2.0,1.3,27.45,2097,0.0,1.0
2,2,50,1,2,1,18,7,2,3,2,1,1,1.0,0.57,28.02,3250,1.0,1.0
2,2,51,1,2,2,22,21,4,2,4,1,1,1.0,0.42,28.44,6037,1.0,1.0
2,2,52,1,2,3,42,34,4,2,4,1,1,1.0,0.54,28.98,1843,1.0,1.0
2,2,53,1,2,4,31,22,2,5,2,1,1,1.0,0.38,29.36,7312,1.0,1.0
2,2,54,1,2,5,7,44,3,5,3,1,1,1.0,0.5,29.86,1421,1.0,1.0
2,2,55,1,2,6,36,33,2,3,2,1,1,1.0,0.49,30.35,2676,1.0,1.0
2,2,56,1,1,1,16,9,5,3,5,1,1,2.0,0.5,30.85,5571,0.0,1.0
2,2,57,1,1,2,13,9,2,3,2,1,1,2.0,0.35,31.2,3730,0.0,1.0
2,2,58,1,1,3,45,15,4,3,4,1,1,2.0,1.02,32.22,2504,0.0,1.0
2,2,59,1,1,4,30,19,2,4,2,1,1,2.0,0.7,32.92,2665,0.0,1.0
2,2,60,1,1,5,47,2,3,4,2,0,0,0.0,0.0,32.92,7156,,
2,2,61,1,1,6,51,53,4,5,4,1,1,2.0,0.92,33.84,7447,0.0,
2,2,62,1,2,1,11,22,2,4,2,1,1,1.0,0.59,34.43,2578,1.0,1.0
2,2,63,1,2,2,17,20,3,5,3,1,1,1.0,0.57,35.0,5938,1.0,1.0
2,2,64,1,2,3,5,10,3,5,3,1,1,1.0,0.5,35.5,2068,1.0,1.0
2,2,65,1,1,1,39,46,4,5,4,1,1,2.0,0.82,36.32,5506,0.0,1.0
2,2,66,1,2,1,54,16,4,5,4,1,1,1.0,0.57,36.89,3568,1.0,1.0
2,2,67,1,2,2,36,5,4,5,4,1,1,1.0,0.47,37.36,2305,1.0,1.0
2,2,68,1,2,3,44,42,4,2,4,1,1,1.0,0.46,37.82,3701,1.0,1.0
2,2,69,1,2,4,42,35,4,5,4,1,1,1.0,0.47,38.29,2159,1.0,1.0
2,2,70,1,1,1,50,26,5,3,5,1,1,2.0,0.39,38.68,3376,0.0,1.0
2,2,71,1,1,2,7,40,4,5,4,1,1,2.0,0.56,39.24,1697,0.0,1.0
2,2,72,1,1,3,32,31,4,2,4,1,1,2.0,0.65,39.89,3957,0.0,1.0
2,2,73,1,2,1,22,52,5,2,5,1,1,1.0,0.67,40.56,2677,1.0,1.0
2,2,74,1,2,2,6,7,4,3,4,1,1,1.0,0.46,41.02,4287,1.0,1.0
2,2,75,1,1,1,20,34,3,4,3,1,1,2.0,0.79,41.81,9092,0.0,1.0
2,2,76,1,1,2,20,33,3,2,3,1,1,2.0,0.88,42.69,6704,0.0,1.0
2,2,77,1,1,3,52,12,4,2,4,1,1,2.0,0.94,43.63,5794,0.0,1.0
2,2,78,1,1,4,53,42,3,5,3,1,1,2.0,0.03,43.66,2514,0.0,1.0
2,2,79,1,1,5,15,23,3,4,3,1,1,2.0,0.6,44.26,2968,0.0,1.0
2,2,80,1,2,1,46,53,5,3,5,1,1,1.0,0.53,44.79,2387,1.0,1.0
2,2,81,1,2,2,9,43,4,3,4,1,1,1.0,0.38,45.17,7040,1.0,1.0
2,2,82,1,2,3,10,1,3,4,3,1,1,1.0,0.41,45.58,3004,1.0,1.0
2,2,83,1,2,4,10,51,2,5,2,1,1,1.0,0.63,46.21,1512,1.0,1.0
2,2,84,1,2,5,17,8,4,2,5,0,0,0.0,0.0,46.21,5140,,
2,2,1,2,2,1,36,4,3,5,3,1,1,1.0,0.48,46.69,4388,1.0,
2,2,2,2,2,2,46,29,4,3,4,1,1,1.0,0.55,47.24,4060,1.0,1.0
2,2,3,2,2,3,5,30,5,4,5,1,1,1.0,0.51,47.75,4657,1.0,1.0
2,2,4,2,1,1,24,6,4,2,4,1,1,2.0,0.2,47.95,1091,0.0,1.0
2,2,5,2,1,2,49,29,4,5,4,1,1,2.0,0.24,48.19,5572,0.0,1.0
2,2,6,2,1,3,6,36,5,3,5,1,1,2.0,0.71,48.9,14147,0.0,1.0
2,2,7,2,1,4,30,26,2,4,2,1,1,2.0,0.05,48.95,5346,0.0,1.0
2,2,8,2,2,1,48,42,2,4,2,1,1,1.0,0.59,49.54,1490,1.0,1.0
2,2,9,2,2,2,9,10,4,5,4,1,1,1.0,0.57,50.11,4691,1.0,1.0
2,2,10,2,1,1,40,53,2,5,2,1,1,2.0,0.11,50.22,5857,0.0,1.0
2,2,11,2,1,2,1,50,2,5,2,1,1,2.0,0.37,50.59,3761,0.0,1.0
2,2,12,2,1,3,27,50,5,3,5,1,1,2.0,0.96,51.55,9363,0.0,1.0
2,2,13,2,2,1,4,50,2,5,2,1,1,1.0,0.44,51.99,3153,1.0,1.0
2,2,14,2,2,2,14,21,4,5,4,1,1,1.0,0.54,52.53,4243,1.0,1.0
2,2,15,2,2,3,37,17,3,5,3,1,1,1.0,0.53,53.06,3875,1.0,1.0
2,2,16,2,2,4,53,14,4,3,4,1,1,1.0,0.5,53.56,2338,1.0,1.0
2,2,17,2,1,1,49,19,4,2,4,1,1,2.0,0.03,53.59,2049,0.0,1.0
2,2,18,2,2,1,22,49,2,4,2,1,1,1.0,0.39,53.98,2276,1.0,1.0
2,2,19,2,2,2,10,5,3,2,3,1,1,1.0,0.46,54.44,2497,1.0,1.0
2,2,20,2,2,3,39,32,3,2,3,1,1,1.0,0.36,54.8,2610,1.0,1.0
2,2,21,2,2,4,36,24,2,3,2,1,1,1.0,0.38,55.18,2944,1.0,1.0
2,2,22,2,2,5,8,11,5,2,5,1,1,1.0,0.67,55.85,2928,1.0,1.0
2,2,23,2,1,1,27,43,5,4,5,1,1,2.0,0.53,56.38,2772,0.0,1.0
2,2,24,2,1,2,19,31,5,3,5,1,1,2.0,0.48,56.86,4065,0.0,1.0
2,2,25,2,1,3,25,19,3,4,3,1,1,2.0,0.38,57.24,9808,0.0,1.0
2,2,26,2,1,4,29,13,4,5,4,1,1,2.0,0.95,58.19,3426,0.0,1.0
2,2,27,2,1,5,42,46,3,2,3,1,1,2.0,0.56,58.75,6544,0.0,1.0
2,2,28,2,1,6,51,12,3,2,3,1,1,2.0,0.81,59.56,5440,0.0,1.0
2,2,29,2,2,1,45,14,3,5,3,1,1,1.0,0.36,59.92,3652,1.0,1.0
2,2,30,2,1,1,8,23,2,4,4,2,1,1.0,0.45,60.37,4130,1.0,2.0
2,2,31,2,1,2,11,53,4,5,4,1,1,2.0,0.38,60.75,3459,0.0,2.0
2,2,32,2,2,1,37,9,2,5,2,1,1,1.0,0.36,61.11,5553,1.0,1.0
2,2,33,2,2,2,28,45,2,4,2,1,1,1.0,0.34,61.45,2969,1.0,1.0
2,2,34,2,2,3,36,29,4,3,4,1,1,1.0,0.61,62.06,3331,1.0,1.0
2,2,35,2,2,4,17,54,2,3,2,1,1,1.0,0.5,62.56,3908,1.0,1.0
2,2,36,2,2,5,16,24,2,5,2,1,1,1.0,0.42,62.98,3554,1.0,1.0
2,2,37,2,2,6,32,47,4,2,4,1,1,1.0,0.59,63.57,2692,1.0,1.0
2,2,38,2,1,1,10,40,3,5,3,1,1,2.0,0.61,64.18,2517,0.0,1.0
2,2,39,2,1,2,11,21,2,3,2,1,1,2.0,0.03,64.21,1911,0.0,1.0
2,2,40,2,1,3,19,35,5,2,5,1,1,2.0,1.13,65.34,8129,0.0,1.0
2,2,41,2,1,4,40,37,5,2,5,1,1,2.0,0.64,65.98,6061,0.0,1.0
2,2,42,2,1,5,43,48,2,5,2,1,1,2.0,1.2,67.18,5899,0.0,1.0
2,2,43,2,2,1,54,40,2,5,2,1,1,1.0,0.63,67.81,2005,1.0,1.0
2,2,44,2,2,2,10,41,3,4,3,1,1,1.0,0.42,68.23,3088,1.0,1.0
2,2,45,2,2,3,29,3,2,3,2,1,1,1.0,0.35,68.58,2851,1.0,1.0
2,2,46,2,2,4,40,22,4,2,4,1,1,1.0,0.49,69.07,3026,1.0,1.0
2,2,47,2,2,5,40,30,2,4,2,1,1,1.0,0.46,69.53,3459,1.0,1.0
2,2,48,2,2,6,25,22,2,3,2,1,1,1.0,0.4,69.93,1748,1.0,1.0
2,2,49,2,1,1,23,6,4,3,4,1,1,2.0,0.73,70.66,3021,0.0,1.0
2,2,50,2,1,2,20,18,5,4,5,1,1,2.0,1.2,71.86,7988,0.0,1.0
2,2,51,2,1,3,8,20,3,2,3,1,1,2.0,0.24,72.1,1570,0.0,1.0
2,2,52,2,1,4,29,16,5,4,5,1,1,2.0,0.1,72.2,4133,0.0,1.0
2,2,53,2,1,5,50,5,3,4,3,1,1,2.0,0.38,72.58,7350,0.0,1.0
2,2,54,2,2,1,21,40,4,3,4,1,1,1.0,0.58,73.16,2770,1.0,1.0
2,2,55,2,2,2,33,31,5,2,5,1,1,1.0,0.4,73.56,4900,1.0,1.0
2,2,56,2,1,1,9,24,5,4,5,1,1,2.0,0.44,74.0,6547,0.0,1.0
2,2,57,2,1,2,9,42,3,2,3,1,1,2.0,0.47,74.47,2004,0.0,1.0
2,2,58,2,1,3,47,6,3,4,3,1,1,2.0,0.73,75.2,1542,0.0,1.0
2,2,59,2,1,4,25,29,2,4,2,1,1,2.0,0.22,75.42,1249,0.0,1.0
2,2,60,2,1,5,24,35,5,4,5,1,1,2.0,0.43,75.85,1443,0.0,1.0
2,2,61,2,1,6,54,32,4,5,4,1,1,2.0,0.3,76.15,3699,0.0,1.0
2,2,62,2,2,1,30,22,3,2,3,1,1,1.0,0.49,76.64,1460,1.0,1.0
2,2,63,2,2,2,43,5,3,4,3,1,1,1.0,0.68,77.32,2340,1.0,1.0
2,2,64,2,2,3,24,31,2,3,2,1,1,1.0,0.43,77.75,1365,1.0,1.0
2,2,65,2,2,4,29,22,5,3,5,1,1,1.0,0.34,78.09,1413,1.0,1.0
2,2,66,2,2,5,24,23,4,3,4,1,1,1.0,0.56,78.65,1684,1.0,1.0
2,2,67,2,1,1,13,24,5,2,5,1,1,2.0,0.07,78.72,3202,0.0,1.0
2,2,68,2,2,1,39,52,3,4,3,1,1,1.0,0.5,79.22,2596,1.0,1.0
2,2,69,2,1,1,28,48,3,5,3,1,1,2.0,0.2,79.42,3109,0.0,1.0
2,2,70,2,1,2,15,3,4,2,4,1,1,2.0,0.75,80.17,3894,0.0,1.0
2,2,71,2,2,1,9,42,3,5,3,1,1,1.0,0.57,80.74,3013,1.0,1.0
2,2,72,2,2,2,13,20,5,3,5,1,1,1.0,0.48,81.22,2293,1.0,1.0
2,2,73,2,2,3,13,26,5,2,5,1,1,1.0,0.26,81.48,2084,1.0,1.0
2,2,74,2,1,1,24,5,3,4,3,1,1,2.0,0.56,82.04,1604,0.0,1.0
2,2,75,2,1,2,39,11,5,3,5,1,1,2.0,1.25,83.29,6642,0.0,1.0
2,2,76,2,1,3,22,18,5,4,5,1,1,2.0,0.98,84.27,1285,0.0,1.0
2,2,77,2,1,4,48,18,3,5,3,1,1,2.0,0.46,84.73,3350,0.0,1.0
2,2,78,2,2,1,10,6,4,2,4,1,1,1.0,0.42,85.15,2020,1.0,1.0
2,2,79,2,2,2,26,46,5,2,5,1,1,1.0,0.38,85.53,995,1.0,1.0
2,2,80,2,2,3,3,43,2,3,3,2,1,2.0,0.64,86.17,2979,0.0,2.0
2,2,81,2,2,4,29,23,4,2,4,1,1,1.0,0.45,86.62,1956,1.0,2.0
2,2,82,2,1,1,4,8,4,5,4,1,1,2.0,0.53,87.15,5043,0.0,1.0
2,2,83,2,1,2,47,42,5,3,5,1,1,2.0,0.33,87.48,2626,0.0,1.0
2,2,84,2,1,3,39,31,4,3,4,1,1,2.0,0.28,87.76,5332,0.0,1.0
2,2,1,3,1,1,10,33,2,4,2,1,1,2.0,0.67,88.43,1720,0.0,
2,2,2,3,1,2,14,17,5,3,5,1,1,2.0,0.84,89.27,2003,0.0,1.0
2,2,3,3,1,3,11,12,2,3,2,1,1,2.0,1.5,90.77,1027,0.0,1.0
2,2,4,3,1,4,41,50,5,3,5,1,1,2.0,0.02,90.79,4497,0.0,1.0
2,2,5,3,1,5,53,28,2,5,2,1,1,2.0,0.99,91.78,3138,0.0,1.0
2,2,6,3,2,1,19,17,3,5,3,1,1,1.0,0.45,92.23,8388,1.0,1.0
2,2,7,3,2,2,21,42,2,4,2,1,1,1.0,0.34,92.57,3252,1.0,1.0
2,2,8,3,2,3,50,29,5,2,5,1,1,1.0,0.54,93.11,1444,1.0,1.0
2,2,9,3,1,1,29,41,3,2,3,1,1,2.0,1.23,94.34,2657,0.0,1.0
2,2,10,3,2,1,41,24,3,4,2,0,0,0.0,0.0,94.34,2925,,
2,2,11,3,1,1,29,53,4,3,4,1,1,2.0,0.83,95.17,2865,0.0,
2,2,12,3,1,2,19,37,3,4,3,1,1,2.0,1.42,96.59,4707,0.0,1.0
2,2,13,3,1,3,3,1,2,5,2,1,1,2.0,0.74,97.33,4804,0.0,1.0
2,2,14,3,1,4,4,25,2,3,2,1,1,2.0,1.38,98.71,2607,0.0,1.0
2,2,15,3,1,5,51,1,4,2,4,1,1,2.0,0.34,99.05,6788,0.0,1.0
2,2,16,3,1,6,21,44,2,4,2,1,1,2.0,0.4,99.45,4308,0.0,1.0
2,2,17,3,2,1,7,17,3,2,3,1,1,1.0,0.64,100.09,1460,1.0,1.0
2,2,18,3,2,2,25,13,5,4,5,1,1,1.0,0.37,100.46,1571,1.0,1.0
2,2,19,3,1,1,29,42,3,2,3,1,1,2.0,0.8,101.26,3204,0.0,1.0
2,2,20,3,1,2,2,38,3,5,3,1,1,2.0,0.22,101.48,2334,0.0,1.0
2,2,21,3,1,3,35,7,4,5,4,1,1,2.0,0.76,102.24,4084,0.0,1.0
2,2,22,3,1,4,1,40,4,2,4,1,1,2.0,0.54,102.78,5571,0.0,1.0
2,2,23,3,2,1,36,30,5,2,5,1,1,1.0,0.26,103.04,2068,1.0,1.0
2,2,24,3,2,2,46,31,3,2,3,1,1,1.0,0.44,103.48,2226,1.0,1.0
2,2,25,3,2,3,45,54,4,3,4,1,1,1.0,0.55,104.03,3457,1.0,1.0
2,2,26,3,2,4,17,15,3,5,3,1,1,1.0,0.46,104.49,4086,1.0,1.0
2,2,27,3,1,1,44,2,4,2,4,1,1,2.0,1.08,105.57,3973,0.0,1.0
2,2,28,3,1,2,34,44,5,3,5,1,1,2.0,0.2,105.77,5166,0.0,1.0
2,2,29,3,1,3,49,40,4,3,4,1,1,2.0,1.0,106.77,3139,0.0,1.0
2,2,30,3,2,1,50,3,5,2,5,1,1,1.0,0.49,107.26,5107,1.0,1.0
2,2,31,3,2,2,51,48,2,5,2,1,1,1.0,0.54,107.8,1121,1.0,1.0
2,2,32,3,2,3,17,48,3,2,3,1,1,1.0,0.61,108.41,3156,1.0,1.0
2,2,33,3,2,4,11,5,3,2,3,1,1,1.0,0.25,108.66,2124,1.0,1.0
2,2,34,3,2,5,49,13,2,3,2,1,1,1.0,0.42,109.08,1875,1.0,1.0
2,2,35,3,2,6,2,47,4,3,4,1,1,1.0,0.42,109.5,2531,1.0,1.0
2,2,36,3,1,1,14,15,5,2,5,1,1,2.0,0.02,109.52,2386,0.0,1.0
2,2,37,3,1,2,15,46,5,2,5,1,1,2.0,0.41,109.93,3463,0.0,1.0
2,2,38,3,2,1,24,17,2,5,2,1,1,1.0,0.68,110.61,1988,1.0,1.0
2,2,39,3,2,2,12,28,3,5,3,1,1,1.0,0.5,111.11,2773,1.0,1.0
2,2,40,3,2,3,15,42,4,2,4,1,1,1.0,0.64,111.75,2771,1.0,1.0
2,2,41,3,2,4,47,4,5,3,5,1,1,1.0,0.42,112.17,3076,1.0,1.0
2,2,42,3,2,5,51,36,5,3,5,1,1,1.0,0.5,112.67,1523,1.0,1.0
2,2,43,3,1,1,15,22,4,5,4,1,1,2.0,0.13,112.8,2626,0.0,1.0
2,2,44,3,1,2,32,46,2,3,2,1,1,2.0,0.78,113.58,5444,0.0,1.0
2,2,45,3,2,1,45,12,2,4,2,1,1,1.0,0.47,114.05,3219,1.0,1.0
2,2,46,3,1,1,33,32,4,5,4,1,1,2.0,0.73,114.78,3874,0.0,1.0
2,2,47,3,2,1,51,25,2,4,2,1,1,1.0,0.58,115.36,2739,1.0,1.0
2,2,48,3,2,2,36,3,3,4,3,1,1,1.0,0.49,115.85,5379,1.0,1.0
2,2,49,3,1,1,2,19,5,4,5,1,1,2.0,0.92,116.77,9377,0.0,1.0
2,2,50,3,1,2,34,27,2,4,2,1,1,2.0,1.59,118.36,7378,0.0,1.0
2,2,51,3,1,3,53,52,5,4,5,1,1,2.0,0.75,119.11,4548,0.0,1.0
2,2,52,3,2,1,5,32,4,5,4,1,1,1.0,0.5,119.61,2386,1.0,1.0
2,2,53,3,2,2,13,25,4,3,4,1,1,1.0,0.61,120.22,2211,1.0,1.0
2,2,54,3,2,3,10,54,2,3,2,1,1,1.0,0.51,120.73,1220,1.0,1.0
2,2,55,3,2,4,41,48,5,2,5,1,1,1.0,0.37,121.1,3033,1.0,1.0
2,2,56,3,2,5,13,46,2,4,2,1,1,1.0,0.56,121.66,2658,1.0,1.0
2,2,57,3,2,6,14,9,5,3,5,1,1,1.0,0.5,122.16,1858,1.0,1.0
2,2,58,3,1,1,11,7,4,2,4,1,1,2.0,0.37,122.53,1107,0.0,1.0
2,2,59,3,1,2,9,17,3,4,3,1,1,2.0,1.1,123.63,4626,0.0,1.0
2,2,60,3,1,3,32,54,2,5,2,1,1,2.0,1.38,125.01,3090,0.0,1.0
2,2,61,3,1,4,49,54,5,4,5,1,1,2.0,0.25,125.26,4946,0.0,1.0
2,2,62,3,1,5,43,1,2,3,2,1,1,2.0,0.55,125.81,5555,0.0,1.0
2,2,63,3,2,1,17,19,4,5,4,1,1,1.0,0.4,126.21,3460,1.0,1.0
2,2,64,3,2,2,32,6,5,2,5,1,1,1.0,0.58,126.79,4083,1.0,1.0
2,2,65,3,2,3,14,4,2,3,2,1,1,1.0,0.22,127.01,3217,1.0,1.0
2,2,66,3,1,1,10,16,5,4,5,1,1,2.0,0.97,127.98,3445,0.0,1.0
2,2,67,3,1,2,29,25,4,3,4,1,1,2.0,0.6,128.58,2793,0.0,1.0
2,2,68,3,1,3,36,16,4,3,4,1,1,2.0,0.62,129.2,4898,0.0,1.0
2,2,69,3,1,4,12,29,2,5,2,1,1,2.0,1.07,130.27,4132,0.0,1.0
2,2,70,3,2,1,41,42,3,2,3,1,1,1.0,0.47,130.74,4221,1.0,1.0
2,2,71,3,2,2,21,19,2,5,2,1,1,1.0,0.48,131.22,1654,1.0,1.0
2,2,72,3,2,3,17,21,5,3,5,1,1,1.0,0.35,131.57,3027,1.0,1.0
2,2,73,3,2,4,42,13,3,4,3,1,1,1.0,0.3,131.87,4025,1.0,1.0
2,2,74,3,1,1,26,34,4,2,4,1,1,2.0,0.17,132.04,6689,0.0,1.0
2,2,75,3,1,2,9,48,5,4,5,1,1,2.0,0.63,132.67,1811,0.0,1.0
2,2,76,3,1,3,39,36,4,2,4,1,1,2.0,0.24,132.91,4564,0.0,1.0
2,2,77,3,1,4,54,44,3,4,3,1,1,2.0,1.01,133.92,3986,0.0,1.0
2,2,78,3,1,5,10,22,4,5,4,1,1,2.0,0.16,134.08,1188,0.0,1.0
2,2,79,3,1,6,31,29,4,5,4,1,1,2.0,0.49,134.57,3538,0.0,1.0
2,2,80,3,2,1,4,32,3,5,3,1,1,1.0,0.5,135.07,4320,1.0,1.0
2,2,81,3,2,2,34,11,3,5,3,1,1,1.0,0.47,135.54,3880,1.0,1.0
2,2,82,3,2,3,53,45,5,4,5,1,1,1.0,0.55,136.09,2434,1.0,1.0
2,2,83,3,2,4,16,32,3,4,3,1,1,1.0,0.47,136.56,5458,1.0,1.0
2,2,84,3,2,5,36,48,3,5,3,1,1,1.0,0.3,136.86,4258,1.0,1.0
3,1,1,1,2,1,25,19,2,4,4,2,1,1.0,0.38,0.38,6488,0.0,
3,1,2,1,1,1,10,29,4,3,4,1,1,1.0,0.53,0.91,4318,0.0,2.0
3,1,3,1,1,2,54,31,3,5,3,1,1,1.0,0.35,1.26,26284,0.0,1.0
3,1,4,1,1,3,29,31,4,3,3,2,1,2.0,0.34,1.6,3645,1.0,2.0
3,1,5,1,1,4,49,28,2,4,2,1,1,1.0,0.39,1.99,6170,0.0,2.0
3,1,6,1,1,5,38,30,2,5,2,1,1,1.0,0.36,2.35,4875,0.0,1.0
3,1,7,1,1,6,31,38,3,5,3,1,1,1.0,0.38,2.73,16863,0.0,1.0
3,1,8,1,2,1,53,10,3,4,3,1,1,2.0,0.31,3.04,2462,1.0,1.0
3,1,9,1,2,2,49,10,4,5,5,2,1,1.0,0.52,3.56,7097,0.0,2.0
3,1,10,1,2,3,41,9,5,4,4,2,1,1.0,0.49,4.05,8619,0.0,1.0
3,1,11,1,2,4,13,17,3,2,2,2,1,1.0,0.63,4.68,4402,0.0,1.0
3,1,12,1,1,1,47,46,3,2,3,1,1,1.0,0.47,5.15,8018,0.0,2.0
3,1,13,1,1,2,18,30,4,5,4,1,1,1.0,0.32,5.47,7011,0.0,1.0
3,1,14,1,2,1,9,17,4,5,4,1,1,2.0,0.5,5.97,12642,1.0,1.0
3,1,15,1,2,2,14,19,4,5,4,1,1,2.0,0.53,6.5,3444,1.0,1.0
3,1,16,1,2,3,2,15,3,4,3,1,1,2.0,0.65,7.15,4459,1.0,1.0
3,1,17,1,2,4,40,13,2,5,2,1,1,2.0,0.74,7.89,3890,1.0,1.0
3,1,18,1,2,5,7,35,4,3,4,1,1,2.0,1.1,8.99,1572,1.0,1.0
3,1,19,1,1,1,23,18,5,2,2,2,1,2.0,0.24,9.23,4724,1.0,2.0
3,1,20,1,1,2,54,19,2,3,3,2,1,2.0,0.62,9.85,3554,1.0,1.0
3,1,21,1,1,3,10,37,5,3,3,2,1,2.0,0.49,10.34,4275,1.0,1.0
3,1,22,1,2,1,19,2,3,4,3,1,1,2.0,0.23,10.57,4579,1.0,2.0
3,1,23,1,2,2,17,22,4,3,4,1,1,2.0,1.51,12.08,2225,1.0,1.0
3,1,24,1,2,3,18,46,4,5,4,1,1,2.0,0.38,12.46,2701,1.0,1.0
3,1,25,1,1,1,4,10,2,3,2,1,1,1.0,0.33,12.79,2611,0.0,1.0
3,1,26,1,1,2,30,32,5,4,4,2,1,2.0,1.33,14.12,6174,1.0,2.0
3,1,27,1,1,3,41,35,2,3,3,2,1,2.0,0.65,14.77,4067,1.0,1.0
3,1,28,1,1,4,8,53,5,3,3,2,1,2.0,0.79,15.56,4737,1.0,1.0
3,1,29,1,2,1,8,46,4,3,4,1,1,2.0,1.1,16.66,1892,1.0,2.0
3,1,30,1,2,2,37,30,5,3,5,1,1,2.0,0.08,16.74,4461,1.0,1.0
3,1,31,1,2,3,38,4,3,5,4,0,0,0.0,0.0,16.74,2813,,
3,1,32,1,2,4,48,16,5,2,5,1,1,2.0,0.56,17.3,3016,1.0,
3,1,33,1,2,5,24,15,2,4,2,1,1,2.0,0.43,17.73,2756,1.0,1.0
3,1,34,1,2,6,29,54,5,2,5,1,1,2.0,1.06,18.79,3890,1.0,1.0
3,1,35,1,1,1,46,49,2,3,3,2,1,2.0,0.49,19.28,2690,1.0,2.0
3,1,36,1,2,1,22,8,5,3,5,1,1,2.0,0.75,20.03,1825,1.0,2.0
3,1,37,1,2,2,48,3,5,2,5,1,1,2.0,0.16,20.19,4497,1.0,1.0
3,1,38,1,1,1,12,2,3,4,4,2,1,2.0,0.19,20.38,4258,1.0,2.0
3,1,39,1,1,2,54,29,2,4,4,2,1,2.0,0.65,21.03,1606,1.0,1.0
3,1,40,1,1,3,18,16,5,3,3,2,1,2.0,0.55,21.58,4277,1.0,1.0
3,1,41,1,1,4,5,53,3,5,5,2,1,2.0,1.37,22.95,2482,1.0,1.0
3,1,42,1,1,5,21,8,2,3,3,2,1,2.0,0.37,23.32,9974,1.0,1.0
3,1,43,1,2,1,1,29,5,4,5,1,1,2.0,1.54,24.86,1810,1.0,2.0
3,1,44,1,2,2,49,9,3,4,3,1,1,2.0,1.21,26.07,1681,1.0,1.0
3,1,45,1,2,3,20,11,4,2,4,1,1,2.0,0.23,26.3,2387,1.0,1.0
3,1,46,1,2,4,30,44,3,2,3,1,1,2.0,0.41,26.71,2594,1.0,1.0
3,1,47,1,1,1,18,28,2,5,5,2,1,2.0,0.5,27.21,5281,1.0,2.0
3,1,48,1,1,2,8,28,3,2,2,2,1,2.0,0.89,28.1,3473,1.0,1.0
3,1,49,1,1,3,49,18,5,4,4,2,1,2.0,0.16,28.26,8068,1.0,1.0
3,1,50,1,1,4,33,20,4,5,5,2,1,2.0,0.16,28.42,3810,1.0,1.0
3,1,51,1,1,5,5,25,3,2,2,2,1,2.0,0.41,28.83,3107,1.0,1.0
3,1,52,1,2,1,33,52,4,2,4,1,1,2.0,0.49,29.32,2785,1.0,2.0
3,1,53,1,2,2,36,37,3,5,3,1,1,2.0,0.63,29.95,5236,1.0,1.0
3,1,54,1,2,3,7,35,5,2,5,1,1,2.0,1.0,30.95,3921,1.0,1.0
3,1,55,1,2,4,7,26,4,3,4,1,1,2.0,0.79,31.74,2317,1.0,1.0
3,1,56,1,2,5,9,36,3,4,3,1,1,2.0,0.83,32.57,2660,1.0,1.0
3,1,57,1,1,1,18,1,5,2,5,1,1,1.0,0.6,33.17,7730,0.0,1.0
3,1,58,1,1,2,45,20,2,5,5,2,1,2.0,0.8,33.97,3393,1.0,2.0
3,1,59,1,1,3,3,46,3,2,2,2,1,2.0,1.12,35.09,2966,1.0,1.0
3,1,60,1,1,4,54,3,5,2,2,2,1,2.0,0.65,35.74,3955,1.0,1.0
3,1,61,1,2,1,15,40,3,2,3,1,1,2.0,0.18,35.92,5970,1.0,2.0
3,1,62,1,2,2,15,12,2,4,2,1,1,2.0,0.43,36.35,2750,1.0,1.0
3,1,63,1,2,3,27,7,2,4,2,1,1,2.0,0.72,37.07,1669,1.0,1.0
3,1,64,1,2,4,31,8,5,4,5,1,1,2.0,0.56,37.63,6910,1.0,1.0
3,1,65,1,2,5,46,15,3,4,3,1,1,2.0,0.22,37.85,3476,1.0,1.0
3,1,66,1,2,6,10,30,4,2,4,1,1,2.0,0.19,38.04,4819,1.0,1.0
3,1,67,1,1,1,18,26,2,5,5,2,1,2.0,0.48,38.52,1714,1.0,2.0
3,1,68,1,1,2,6,18,4,3,3,2,1,2.0,0.68,39.2,2961,1.0,1.0
3,1,69,1,1,3,33,11,2,5,5,2,1,2.0,0.34,39.54,1219,1.0,1.0
3,1,70,1,2,1,47,11,4,2,4,1,1,2.0,0.26,39.8,3405,1.0,2.0
3,1,71,1,2,2,39,42,2,3,2,1,1,2.0,0.48,40.28,7474,1.0,1.0
3,1,72,1,2,3,49,20,5,4,5,1,1,2.0,0.42,40.7,1603,1.0,1.0
3,1,73,1,1,1,17,22,5,4,4,2,1,2.0,0.05,40.75,3140,1.0,2.0
3,1,74,1,1,2,28,50,5,3,4,0,0,0.0,0.0,40.75,1681,,
3,1,75,1,2,1,36,23,2,3,2,1,1,2.0,1.11,41.86,3988,1.0,
3,1,76,1,1,1,33,21,5,3,3,2,1,2.0,0.71,42.57,3971,1.0,2.0
3,1,77,1,2,1,38,48,4,2,4,1,1,2.0,1.1,43.67,3971,1.0,2.0
3,1,78,1,2,2,44,7,3,5,3,1,1,2.0,0.27,43.94,5475,1.0,1.0
3,1,79,1,1,1,48,23,2,5,5,2,1,2.0,0.88,44.82,3602,1.0,2.0
3,1,80,1,1,2,19,26,2,4,4,2,1,2.0,0.52,45.34,8794,1.0,1.0
3,1,81,1,1,3,26,45,3,5,5,2,1,2.0,0.14,45.48,3445,1.0,1.0
3,1,82,1,1,4,7,47,4,2,2,2,1,2.0,0.46,45.94,1937,1.0,1.0
3,1,83,1,1,5,40,52,4,2,2,2,1,2.0,1.01,46.95,3649,1.0,1.0
3,1,84,1,1,6,52,30,4,5,5,2,1,2.0,0.04,46.99,1618,1.0,1.0
3,1,1,2,1,1,46,33,5,4,4,2,1,2.0,0.18,47.17,10548,1.0,
3,1,2,2,2,1,46,20,5,2,5,1,1,2.0,1.13,48.3,2736,1.0,2.0
3,1,3,2,2,2,16,37,3,4,3,1,1,2.0,0.07,48.37,3906,1.0,1.0
3,1,4,2,1,1,29,34,5,4,4,2,1,2.0,0.31,48.68,3445,1.0,2.0
3,1,5,2,1,2,46,45,2,5,5,2,1,2.0,0.26,48.94,5600,1.0,1.0
3,1,6,2,2,1,50,14,2,3,2,1,1,2.0,1.26,50.2,2642,1.0,2.0
3,1,7,2,2,2,26,11,5,4,5,1,1,2.0,0.54,50.74,4866,1.0,1.0
3,1,8,2,2,3,30,41,2,3,2,1,1,2.0,1.32,52.06,3954,1.0,1.0
3,1,9,2,2,4,51,5,3,4,3,1,1,2.0,1.41,53.47,2202,1.0,1.0
3,1,10,2,1,1,45,32,4,2,2,2,1,2.0,1.27,54.74,2226,1.0,2.0
3,1,11,2,1,2,8,19,5,4,4,2,1,2.0,0.4,55.14,4242,1.0,1.0
3,1,12,2,1,3,53,50,4,5,5,2,1,2.0,0.41,55.55,7602,1.0,1.0
3,1,13,2,1,4,20,14,3,2,2,2,1,2.0,0.64,56.19,3651,1.0,1.0
3,1,14,2,1,5,7,34,3,2,2,2,1,2.0,0.23,56.42,3009,1.0,1.0
3,1,15,2,1,6,21,2,3,5,5,2,1,2.0,0.04,56.46,2242,1.0,1.0
3,1,16,2,2,1,52,19,5,3,5,1,1,2.0,0.29,56.75,8313,1.0,2.0
3,1,17,2,2,2,9,24,3,4,3,1,1,2.0,1.01,57.76,2258,1.0,1.0
3,1,18,2,2,3,46,25,4,5,4,1,1,2.0,1.62,59.38,4803,1.0,1.0
3,1,19,2,1,1,4,50,2,4,4,2,1,2.0,0.61,59.99,3043,1.0,2.0
3,1,20,2,1,2,41,31,5,3,3,2,1,2.0,0.37,60.36,2932,1.0,1.0
3,1,21,2,1,3,32,47,4,5,5,2,1,2.0,0.83,61.19,8402,1.0,1.0
3,1,22,2,1,4,52,33,4,3,3,2,1,2.0,0.27,61.46,7587,1.0,1.0
3,1,23,2,1,5,10,35,4,2,2,2,1,2.0,1.38,62.84,3377,1.0,1.0
3,1,24,2,2,1,49,15,4,5,5,2,1,1.0,0.63,63.47,7428,0.0,1.0
3,1,25,2,2,2,53,12,3,2,3,1,1,2.0,0.18,63.65,1747,1.0,2.0
3,1,26,2,2,3,15,40,3,5,3,1,1,2.0,1.13,64.78,3584,1.0,1.0
3,1,27,2,2,4,50,46,5,3,5,1,1,2.0,0.68,65.46,1522,1.0,1.0
3,1,28,2,2,5,43,39,4,5,4,1,1,2.0,0.69,66.15,5059,1.0,1.0
3,1,29,2,1,1,48,2,3,5,5,2,1,2.0,0.61,66.76,4692,1.0,2.0
3,1,30,2,1,2,48,29,4,3,3,2,1,2.0,0.82,67.58,2785,1.0,1.0
3,1,31,2,1,3,36,32,4,5,5,2,1,2.0,0.2,67.78,2788,1.0,1.0
3,1,32,2,2,1,23,4,5,3,3,2,1,1.0,0.38,68.16,9025,0.0,1.0
3,1,33,2,1,1,17,31,3,5,5,2,1,2.0,0.41,68.57,4002,1.0,1.0
3,1,34,2,1,2,8,41,2,4,4,2,1,2.0,0.0,68.57,4335,1.0,1.0
3,1,35,2,1,3,16,31,2,4,4,2,1,2.0,0.47,69.04,4002,1.0,1.0
3,1,36,2,1,4,15,37,2,4,4,2,1,2.0,0.63,69.67,4658,1.0,1.0
3,1,37,2,2,1,36,41,4,3,4,1,1,2.0,1.15,70.82,2932,1.0,2.0
3,1,38,2,2,2,48,40,2,5,2,1,1,2.0,0.58,71.4,1922,1.0,1.0
3,1,39,2,2,3,20,39,5,3,5,1,1,2.0,0.24,71.64,4558,1.0,1.0
3,1,40,2,2,4,22,14,3,4,3,1,1,2.0,1.27,72.91,2864,1.0,1.0
3,1,41,2,2,5,25,20,5,3,5,1,1,2.0,0.89,73.8,2757,1.0,1.0
3,1,42,2,2,6,32,33,3,2,3,1,1,2.0,0.61,74.41,4906,1.0,1.0
3,1,43,2,1,1,51,27,4,2,4,1,1,1.0,0.58,74.99,1776,0.0,1.0
3,1,44,2,1,2,42,53,4,2,4,1,1,1.0,0.44,75.43,5769,0.0,1.0
3,1,45,2,1,3,41,26,2,3,3,2,1,2.0,0.9,76.33,6016,1.0,2.0
3,1,46,2,1,4,10,5,3,4,4,2,1,2.0,0.63,76.96,3141,1.0,1.0
3,1,47,2,2,1,35,28,5,4,5,1,1,2.0,0.79,77.75,4273,1.0,2.0
3,1,48,2,2,2,31,15,3,4,3,1,1,2.0,0.01,77.76,5536,1.0,1.0
3,1,49,2,2,3,12,1,5,4,5,1,1,2.0,1.22,78.98,1603,1.0,1.0
3,1,50,2,2,4,33,47,4,5,4,1,1,2.0,0.7,79.68,2946,1.0,1.0
3,1,51,2,2,5,4,21,3,5,4,0,0,0.0,0.0,79.68,3043,,
3,1,52,2,1,1,24,23,2,3,3,2,1,2.0,0.72,80.4,2816,1.0,
3,1,53,2,1,2,48,5,2,3,3,2,1,2.0,1.1,81.5,3571,1.0,1.0
3,1,54,2,1,3,5,33,3,2,2,2,1,2.0,0.8,82.3,4338,1.0,1.0
3,1,55,2,1,4,26,13,3,2,2,2,1,2.0,1.15,83.45,1954,1.0,1.0
3,1,56,2,1,5,18,23,5,2,2,2,1,2.0,1.12,84.57,3586,1.0,1.0
3,1,57,2,2,1,11,46,4,3,3,2,1,1.0,0.39,84.96,2672,0.0,1.0
3,1,58,2,1,1,22,9,2,5,5,2,1,2.0,1.34,86.3,2593,1.0,1.0
3,1,59,2,1,2,31,34,5,2,2,2,1,2.0,0.68,86.98,2709,1.0,1.0
3,1,60,2,2,1,40,2,3,2,2,2,1,1.0,0.5,87.48,1508,0.0,1.0
3,1,61,2,2,2,41,37,5,3,5,1,1,2.0,0.31,87.79,3314,1.0,2.0
3,1,62,2,2,3,19,21,2,5,2,1,1,2.0,0.6,88.39,4161,1.0,1.0
3,1,63,2,2,4,44,5,5,2,5,1,1,2.0,0.1,88.49,3285,1.0,1.0
3,1,64,2,1,1,37,8,5,4,5,1,1,1.0,0.48,88.97,3763,0.0,1.0
3,1,65,2,1,2,23,10,2,5,2,1,1,1.0,0.59,89.56,2448,0.0,1.0
3,1,66,2,1,3,34,3,5,2,5,1,1,1.0,0.54,90.1,2658,0.0,1.0
3,1,67,2,1,4,20,1,3,5,5,2,1,2.0,1.2,91.3,3025,1.0,2.0
3,1,68,2,1,5,46,39,2,3,3,2,1,2.0,0.52,91.82,3552,1.0,1.0
3,1,69,2,1,6,11,13,2,4,4,2,1,2.0,1.38,93.2,2689,1.0,1.0
3,1,70,2,2,1,34,9,4,2,4,1,1,2.0,0.13,93.33,5764,1.0,2.0
3,1,71,2,2,2,29,52,4,3,4,1,1,2.0,0.14,93.47,8065,1.0,1.0
3,1,72,2,1,1,26,12,2,4,4,2,1,2.0,0.45,93.92,1748,1.0,2.0
3,1,73,2,2,1,39,23,2,4,2,1,1,2.0,0.04,93.96,4569,1.0,2.0
3,1,74,2,2,2,6,12,4,2,4,1,1,2.0,0.05,94.01,4883,1.0,1.0
3,1,75,2,2,3,40,31,4,3,4,1,1,2.0,0.1,94.11,4732,1.0,1.0
3,1,76,2,1,1,44,9,5,2,2,2,1,2.0,0.62,94.73,4980,1.0,2.0
3,1,77,2,1,2,54,51,2,5,5,2,1,2.0,0.41,95.14,2801,1.0,1.0
3,1,78,2,1,3,8,11,3,5,5,2,1,2.0,0.42,95.56,945,1.0,1.0
3,1,79,2,2,1,29,17,2,5,2,1,1,2.0,0.44,96.0,2211,1.0,2.0
3,1,80,2,2,2,30,10,5,2,2,2,1,1.0,0.52,96.52,1442,0.0,2.0
3,1,81,2,2,3,46,7,4,3,4,1,1,2.0,0.26,96.78,3138,1.0,2.0
3,1,82,2,2,4,1,34,2,3,2,1,1,2.0,0.17,96.95,2147,1.0,1.0
3,1,83,2,2,5,43,44,3,4,3,1,1,2.0,0.74,97.69,6528,1.0,1.0
3,1,84,2,2,6,6,52,4,2,4,1,1,2.0,0.3,97.99,9905,1.0,1.0
3,1,1,3,2,1,20,7,5,4,5,1,1,2.0,0.61,98.6,4153,1.0,
3,1,2,3,2,2,3,5,2,4,2,1,1,2.0,0.05,98.65,1969,1.0,1.0
3,1,3,3,2,3,5,24,2,3,2,1,1,2.0,0.43,99.08,5717,1.0,1.0
3,1,4,3,2,4,54,38,3,5,3,1,1,2.0,0.85,99.93,5203,1.0,1.0
3,1,5,3,2,5,24,45,4,5,4,1,1,2.0,0.08,100.01,4160,1.0,1.0
3,1,6,3,2,6,20,17,5,4,5,1,1,2.0,0.57,100.58,3135,1.0,1.0
3,1,7,3,1,1,45,47,3,2,3,1,1,1.0,0.47,101.05,2849,0.0,1.0
3,1,8,3,1,2,36,21,3,4,3,1,1,1.0,0.49,101.54,4114,0.0,1.0
3,1,9,3,1,3,10,14,3,2,2,2,1,2.0,0.33,101.87,2911,1.0,2.0
3,1,10,3,1,4,18,30,4,3,3,2,1,2.0,0.43,102.3,2642,1.0,1.0
3,1,11,3,2,1,4,18,4,3,4,1,1,2.0,1.16,103.46,4307,1.0,2.0
3,1,12,3,1,1,43,27,3,2,2,2,1,2.0,0.81,104.27,2597,1.0,2.0
3,1,13,3,1,2,47,42,3,4,4,2,1,2.0,0.32,104.59,5090,1.0,1.0
3,1,14,3,1,3,4,10,5,2,2,2,1,2.0,0.19,104.78,1570,1.0,1.0
3,1,15,3,2,1,50,46,4,2,4,1,1,2.0,0.62,105.4,3811,1.0,2.0
3,1,16,3,2,2,51,5,2,5,2,1,1,2.0,0.32,105.72,2548,1.0,1.0
3,1,17,3,2,3,10,26,5,2,5,1,1,2.0,0.25,105.97,1474,1.0,1.0
3,1,18,3,2,4,9,27,2,4,2,1,1,2.0,0.53,106.5,3667,1.0,1.0
3,1,19,3,1,1,24,37,2,3,3,2,1,2.0,1.09,107.59,3655,1.0,2.0
3,1,20,3,2,1,45,53,4,5,4,1,1,2.0,0.78,108.37,4611,1.0,2.0
3,1,21,3,2,2,5,25,4,2,5,0,0,0.0,0.0,108.37,2514,,
3,1,22,3,2,3,28,19,4,2,4,1,1,2.0,0.02,108.39,3458,1.0,
3,1,23,3,2,4,18,14,3,4,3,1,1,2.0,0.95,109.34,2782,1.0,1.0
3,1,24,3,2,5,14,16,2,3,2,1,1,2.0,0.39,109.73,8020,1.0,1.0
3,1,25,3,1,1,27,10,2,4,4,2,1,2.0,0.53,110.26,3043,1.0,2.0
3,1,26,3,1,2,47,49,4,2,2,2,1,2.0,0.3,110.56,10098,1.0,1.0
3,1,27,3,1,3,10,43,2,4,4,2,1,2.0,0.4,110.96,3539,1.0,1.0
3,1,28,3,1,4,51,14,5,3,3,2,1,2.0,0.12,111.08,3345,1.0,1.0
3,1,29,3,1,5,10,49,5,2,2,2,1,2.0,0.67,111.75,1699,1.0,1.0
3,1,30,3,2,1,20,34,3,4,3,1,1,2.0,0.22,111.97,3252,1.0,2.0
3,1,31,3,2,2,30,50,2,5,2,1,1,2.0,1.22,113.19,1578,1.0,1.0
3,1,32,3,2,3,54,33,2,4,2,1,1,2.0,0.57,113.76,1444,1.0,1.0
3,1,33,3,1,1,8,24,3,4,4,2,1,2.0,0.29,114.05,5508,1.0,2.0
3,1,34,3,1,2,45,20,5,3,3,2,1,2.0,0.19,114.24,3218,1.0,1.0
3,1,35,3,2,1,10,20,5,4,5,1,1,2.0,0.55,114.79,2227,1.0,2.0
3,1,36,3,2,2,37,26,3,4,3,1,1,2.0,0.4,115.19,2930,1.0,1.0
3,1,37,3,1,1,9,18,3,5,5,2,1,2.0,0.37,115.56,3636,1.0,2.0
3,1,38,3,1,2,31,11,2,5,5,2,1,2.0,0.15,115.71,1983,1.0,1.0
3,1,39,3,1,3,26,19,4,3,3,2,1,2.0,0.47,116.18,3557,1.0,1.0
3,1,40,3,1,4,18,12,5,3,3,2,1,2.0,0.79,116.97,3023,1.0,1.0
3,1,41,3,1,5,26,33,5,2,2,2,1,2.0,0.19,117.16,6450,1.0,1.0
3,1,42,3,1,6,30,40,5,4,4,2,1,2.0,0.43,117.59,2936,1.0,1.0
3,1,43,3,2,1,54,26,3,2,3,1,1,2.0,0.62,118.21,5762,1.0,2.0
3,1,44,3,2,2,12,46,3,4,3,1,1,2.0,0.46,118.67,1893,1.0,1.0
3,1,45,3,2,3,19,29,3,2,3,1,1,2.0,1.32,119.99,3140,1.0,1.0
3,1,46,3,2,4,16,41,3,5,3,1,1,2.0,1.26,121.25,2948,1.0,1.0
3,1,47,3,1,1,37,22,4,5,5,2,1,2.0,0.8,122.05,3795,1.0,2.0
3,1,48,3,1,2,6,53,4,5,5,2,1,2.0,0.54,122.59,1748,1.0,1.0
3,1,49,3,1,3,34,31,4,5,5,2,1,2.0,0.12,122.71,5555,1.0,1.0
3,1,50,3,2,1,29,35,2,3,3,2,1,1.0,0.45,123.16,2850,0.0,1.0
3,1,51,3,1,1,47,52,4,2,2,2,1,2.0,0.32,123.48,2024,1.0,1.0
3,1,52,3,1,2,41,2,2,3,3,2,1,2.0,0.28,123.76,1812,1.0,1.0
3,1,53,3,2,1,54,13,3,5,4,0,0,0.0,0.0,123.76,6802,,
3,1,54,3,2,2,6,20,2,3,2,1,1,2.0,1.33,125.09,3358,1.0,
3,1,55,3,1,1,36,38,5,3,5,1,1,1.0,0.59,125.68,4945,0.0,1.0
3,1,56,3,1,2,51,22,4,5,4,1,1,1.0,0.51,126.19,4321,0.0,1.0
3,1,57,3,1,3,9,41,3,5,5,2,1,2.0,0.36,126.55,3187,1.0,2.0
3,1,58,3,1,4,27,33,5,3,3,2,1,2.0,0.54,127.09,3186,1.0,1.0
3,1,59,3,2,1,41,48,4,2,4,1,1,2.0,0.86,127.95,5266,1.0,2.0
3,1,60,3,2,2,51,48,2,5,2,1,1,2.0,1.55,129.5,4600,1.0,1.0
3,1,61,3,2,3,29,38,3,5,3,1,1,2.0,0.65,130.15,1811,1.0,1.0
3,1,62,3,1,1,1,4,5,3,5,1,1,1.0,0.6,130.75,1793,0.0,1.0
3,1,63,3,2,1,18,20,2,3,2,1,1,2.0,0.82,131.57,3092,1.0,1.0
3,1,64,3,2,2,35,47,3,2,3,1,1,2.0,0.76,132.33,1748,1.0,1.0
3,1,65,3,2,3,44,7,5,3,5,1,1,2.0,0.97,133.3,3124,1.0,1.0
3,1,66,3,2,4,7,25,4,2,4,1,1,2.0,1.09,134.39,3782,1.0,1.0
3,1,67,3,2,5,30,28,2,4,2,1,1,2.0,0.52,134.91,1683,1.0,1.0
3,1,68,3,2,6,13,9,2,5,2,1,1,2.0,0.35,135.26,1861,1.0,1.0
3,1,69,3,1,1,50,46,2,5,2,1,1,1.0,0.53,135.79,2981,0.0,1.0
3,1,70,3,1,2,3,42,4,3,3,2,1,2.0,0.97,136.76,5906,1.0,2.0
3,1,71,3,1,3,17,25,4,3,3,2,1,2.0,1.07,137.83,3300,1.0,1.0
3,1,72,3,1,4,45,29,5,2,3,0,0,0.0,0.0,137.83,1331,,
3,1,73,3,1,5,45,20,2,4,4,2,1,2.0,0.24,138.07,2899,1.0,
3,1,74,3,1,6,16,47,4,3,3,2,1,2.0,0.93,139.0,2737,1.0,1.0
3,1,75,3,2,1,28,8,3,5,3,1,1,2.0,0.42,139.42,2213,1.0,2.0
3,1,76,3,2,2,6,10,5,2,2,2,1,1.0,0.46,139.88,1380,0.0,2.0
3,1,77,3,2,3,50,43,4,5,5,2,1,1.0,0.56,140.44,4420,0.0,1.0
3,1,78,3,2,4,45,6,5,4,5,1,1,2.0,0.94,141.38,4387,1.0,2.0
3,1,79,3,2,5,48,23,5,4,5,1,1,2.0,0.23,141.61,1443,1.0,1.0
3,1,80,3,1,1,4,16,4,3,3,2,1,2.0,0.48,142.09,8103,1.0,2.0
3,1,81,3,1,2,36,49,3,2,2,2,1,2.0,0.76,142.85,4210,1.0,1.0
3,1,82,3,1,3,22,31,5,2,2,2,1,2.0,0.54,143.39,2741,1.0,1.0
3,1,83,3,1,4,30,51,2,5,5,2,1,2.0,1.24,144.63,1766,1.0,1.0
3,1,84,3,1,5,52,26,5,4,4,2,1,2.0,0.34,144.97,2677,1.0,1.0
4,2,1,1,2,1,6,31,2,3,3,2,1,2.0,0.3,0.3,2880,0.0,
4,2,2,1,2,2,49,25,3,5,5,2,1,2.0,0.56,0.86,8844,0.0,1.0
4,2,3,1,2,3,47,27,4,2,2,2,1,2.0,0.64,1.5,7111,0.0,1.0
4,2,4,1,1,1,49,44,4,5,2,0,0,0.0,0.0,1.5,2440,,
4,2,5,1,2,1,34,37,5,4,5,1,1,1.0,0.36,1.86,12735,1.0,
4,2,6,1,1,1,32,2,5,2,2,2,1,1.0,0.64,2.5,3583,1.0,2.0
4,2,7,1,1,2,22,5,4,5,4,1,1,2.0,1.06,3.56,5453,0.0,2.0
4,2,8,1,1,3,18,52,3,2,3,1,1,2.0,0.48,4.04,7153,0.0,1.0
4,2,9,1,1,4,48,14,4,3,3,2,1,1.0,0.54,4.58,5281,1.0,2.0
4,2,10,1,1,5,15,31,5,4,5,1,1,2.0,0.58,5.16,5658,0.0,2.0
4,2,11,1,2,1,52,48,5,4,4,2,1,2.0,0.41,5.57,12710,0.0,2.0
4,2,12,1,2,2,48,36,3,2,3,1,1,1.0,0.59,6.16,12375,1.0,2.0
4,2,13,1,2,3,27,21,5,3,3,2,1,2.0,0.22,6.38,7365,0.0,2.0
4,2,14,1,2,4,31,44,5,2,2,2,1,2.0,1.53,7.91,15036,0.0,1.0
4,2,15,1,1,1,50,40,2,4,2,1,1,2.0,0.44,8.35,9024,0.0,2.0
4,2,16,1,1,2,41,28,2,3,2,1,1,2.0,0.55,8.9,4628,0.0,1.0
4,2,17,1,1,3,13,17,3,5,3,1,1,2.0,1.0,9.9,6409,0.0,1.0
4,2,18,1,2,1,34,46,5,2,5,1,1,1.0,0.51,10.41,8311,1.0,1.0
4,2,19,1,2,2,2,27,5,3,3,2,1,2.0,0.45,10.86,7047,0.0,2.0
4,2,20,1,2,3,53,17,5,4,4,2,1,2.0,0.11,10.97,6362,0.0,1.0
4,2,21,1,2,4,53,48,5,4,4,2,1,2.0,0.64,11.61,9322,0.0,1.0
4,2,22,1,2,5,53,29,2,3,2,1,1,1.0,0.34,11.95,2002,1.0,2.0
4,2,23,1,1,1,43,38,3,4,4,2,1,1.0,0.58,12.53,4352,1.0,2.0
4,2,24,1,1,2,8,9,4,3,4,1,1,2.0,1.27,13.8,12911,0.0,2.0
4,2,25,1,1,3,23,27,4,2,4,1,1,2.0,0.17,13.97,8344,0.0,1.0
4,2,26,1,1,4,37,9,2,3,2,1,1,2.0,0.9,14.87,7032,0.0,1.0
4,2,27,1,1,5,35,5,2,5,2,1,1,2.0,1.09,15.96,5564,0.0,1.0
4,2,28,1,1,6,7,35,5,2,2,2,1,1.0,0.31,16.27,3195,1.0,2.0
4,2,29,1,2,1,34,8,4,5,4,1,1,1.0,0.33,16.6,1705,1.0,2.0
4,2,30,1,2,2,22,19,3,2,2,2,1,2.0,0.77,17.37,5234,0.0,2.0
4,2,31,1,1,1,22,47,2,3,2,1,1,2.0,0.31,17.68,6463,0.0,2.0
4,2,32,1,1,2,11,36,4,2,4,1,1,2.0,0.83,18.51,3130,0.0,1.0
4,2,33,1,2,1,28,54,5,3,5,1,1,1.0,0.6,19.11,4762,1.0,1.0
4,2,34,1,2,2,28,7,2,4,4,2,1,2.0,0.84,19.95,2777,0.0,2.0
4,2,35,1,2,3,25,22,2,4,4,2,1,2.0,1.11,21.06,7128,0.0,1.0
4,2,36,1,2,4,33,43,2,5,2,1,1,1.0,0.58,21.64,8424,1.0,2.0
4,2,37,1,2,5,31,46,4,2,4,1,1,1.0,0.64,22.28,8293,1.0,1.0
4,2,38,1,2,6,3,24,3,4,4,2,1,2.0,0.49,22.77,10039,0.0,2.0
4,2,39,1,1,1,25,4,4,3,4,1,1,2.0,0.43,23.2,1363,0.0,2.0
4,2,40,1,1,2,39,20,5,4,4,2,1,1.0,0.31,23.51,7450,1.0,2.0
4,2,41,1,1,3,6,17,5,2,5,1,1,2.0,0.62,24.13,1885,0.0,2.0
4,2,42,1,1,4,3,52,4,3,4,1,1,2.0,0.0,24.13,1391,0.0,1.0
4,2,43,1,2,1,35,8,2,5,5,2,1,2.0,1.17,25.3,1381,0.0,2.0
4,2,44,1,2,2,7,27,2,5,2,1,1,1.0,0.41,25.71,1979,1.0,2.0
4,2,45,1,2,3,24,38,2,5,2,1,1,1.0,0.56,26.27,5562,1.0,1.0
4,2,46,1,2,4,42,47,3,5,3,1,1,1.0,0.53,26.8,7099,1.0,1.0
4,2,47,1,2,5,2,26,4,2,4,1,1,1.0,0.39,27.19,1930,1.0,1.0
4,2,48,1,2,6,14,44,2,4,2,1,1,1.0,0.24,27.43,4090,1.0,1.0
4,2,49,1,1,1,8,11,4,5,4,1,1,2.0,0.47,27.9,1780,0.0,1.0
4,2,50,1,1,2,36,25,5,3,3,2,1,1.0,0.38,28.28,9066,1.0,2.0
4,2,51,1,1,3,31,3,2,4,4,2,1,1.0,0.57,28.85,4557,1.0,1.0
4,2,52,1,1,4,9,50,4,5,4,1,1,2.0,0.74,29.59,1140,0.0,2.0
4,2,53,1,1,5,12,16,5,2,2,2,1,1.0,0.7,30.29,5557,1.0,2.0
4,2,54,1,2,1,23,15,4,3,4,1,1,1.0,0.57,30.86,5043,1.0,2.0
4,2,55,1,2,2,13,33,4,5,4,1,1,1.0,0.42,31.28,3880,1.0,1.0
4,2,56,1,1,1,22,11,5,4,4,2,1,1.0,0.54,31.82,3081,1.0,2.0
4,2,57,1,1,2,50,7,3,2,2,2,1,1.0,0.38,32.2,1948,1.0,1.0
4,2,58,1,1,3,19,14,3,5,5,2,1,1.0,0.5,32.7,4907,1.0,1.0
4,2,59,1,1,4,8,29,3,2,3,1,1,2.0,0.48,33.18,2500,0.0,2.0
4,2,60,1,1,5,45,32,3,2,3,1,1,2.0,0.5,33.68,6989,0.0,1.0
4,2,61,1,1,6,45,6,2,4,4,2,1,1.0,0.46,34.14,2180,1.0,2.0
4,2,62,1,2,1,28,21,4,2,2,2,1,2.0,1.02,35.16,6025,0.0,1.0
4,2,63,1,1,1,31,19,3,2,2,2,1,1.0,0.28,35.44,5270,1.0,1.0
4,2,64,1,2,1,43,25,3,4,4,2,1,2.0,0.7,36.14,4609,0.0,1.0
4,2,65,1,2,2,35,43,5,2,5,1,1,1.0,0.61,36.75,8438,1.0,2.0
4,2,66,1,2,3,4,21,4,5,4,1,1,1.0,0.59,37.34,2483,1.0,1.0
4,2,67,1,2,4,33,30,3,5,5,2,1,2.0,0.77,38.11,4124,0.0,2.0
4,2,68,1,1,1,10,4,2,5,5,2,1,1.0,0.5,38.61,1909,1.0,1.0
4,2,69,1,1,2,54,22,3,4,4,2,1,1.0,0.58,39.19,5270,1.0,1.0
4,2,70,1,1,3,15,5,3,5,5,2,1,1.0,0.57,39.76,3553,1.0,1.0
4,2,71,1,2,1,8,13,3,5,3,1,1,1.0,0.47,40.23,1584,1.0,2.0
4,2,72,1,2,2,43,31,2,3,3,2,1,2.0,0.32,40.55,8942,0.0,2.0
4,2,73,1,2,3,26,38,5,3,5,1,1,1.0,0.47,41.02,3638,1.0,2.0
4,2,74,1,1,1,21,11,4,3,3,2,1,1.0,0.33,41.35,1298,1.0,2.0
4,2,75,1,1,2,52,28,3,4,4,2,1,1.0,0.47,41.82,6155,1.0,1.0
4,2,76,1,2,1,48,42,2,3,3,2,1,2.0,0.56,42.38,11379,0.0,1.0
4,2,77,1,2,2,29,31,4,3,4,1,1,1.0,0.54,42.92,3897,1.0,2.0
4,2,78,1,2,3,2,3,2,4,2,1,1,1.0,0.67,43.59,3211,1.0,1.0
4,2,79,1,2,4,28,2,5,3,3,2,1,2.0,0.33,43.92,3352,0.0,2.0
4,2,80,1,2,5,30,21,3,4,3,1,1,1.0,0.57,44.49,3247,1.0,2.0
4,2,81,1,1,1,1,42,5,3,5,1,1,2.0,0.88,45.37,1163,0.0,1.0
4,2,82,1,1,2,42,11,2,5,2,1,1,2.0,0.94,46.31,11705,0.0,1.0
4,2,83,1,1,3,53,14,4,2,4,1,1,2.0,0.03,46.34,7826,0.0,1.0
4,2,84,1,1,4,25,40,3,4,3,1,1,2.0,0.6,46.94,5287,0.0,1.0
4,2,1,2,1,1,7,1,2,5,5,2,1,1.0,0.53,47.47,1924,1.0,
4,2,2,2,1,2,1,40,2,3,2,1,1,2.0,0.03,47.5,3892,0.0,2.0
4,2,3,2,1,3,13,36,3,2,3,1,1,2.0,0.15,47.65,3190,0.0,1.0
4,2,4,2,1,4,31,14,3,4,4,2,1,1.0,0.63,48.28,4020,1.0,2.0
4,2,5,2,2,1,46,50,3,5,5,2,1,2.0,0.44,48.72,7440,0.0,1.0
4,2,6,2,2,2,11,45,2,3,2,1,1,1.0,0.55,49.27,1157,1.0,2.0
4,2,7,2,2,3,7,45,2,5,2,1,1,1.0,0.51,49.78,2196,1.0,1.0
4,2,8,2,1,1,52,4,4,3,3,2,1,1.0,0.43,50.21,3802,1.0,2.0
4,2,9,2,1,2,1,39,2,3,2,1,1,2.0,0.24,50.45,2639,0.0,2.0
4,2,10,2,1,3,51,45,5,2,5,1,1,2.0,0.71,51.16,8259,0.0,1.0
4,2,11,2,1,4,9,41,4,5,5,2,1,1.0,0.39,51.55,4007,1.0,2.0
4,2,12,2,1,5,46,23,3,2,3,1,1,2.0,0.87,52.42,1284,0.0,2.0
4,2,13,2,1,6,32,26,3,5,3,1,1,2.0,0.77,53.19,3486,0.0,1.0
4,2,14,2,2,1,43,47,3,2,3,1,1,1.0,0.4,53.59,8672,1.0,1.0
4,2,15,2,2,2,7,34,2,3,2,1,1,1.0,0.47,54.06,2290,1.0,1.0
4,2,16,2,2,3,52,33,2,5,2,1,1,1.0,0.36,54.42,10580,1.0,1.0
4,2,17,2,2,4,7,22,3,4,3,1,1,1.0,0.24,54.66,2298,1.0,1.0
4,2,18,2,1,1,5,16,4,2,4,1,1,2.0,0.96,55.62,1644,0.0,1.0
4,2,19,2,1,2,22,50,2,5,2,1,1,2.0,0.26,55.88,5544,0.0,1.0
4,2,20,2,2,1,25,32,2,3,2,1,1,1.0,0.54,56.42,4055,1.0,1.0
4,2,21,2,2,2,41,15,4,2,2,2,1,2.0,0.61,57.03,3971,0.0,2.0
4,2,22,2,1,1,4,12,5,3,3,2,1,1.0,0.5,57.53,1442,1.0,1.0
4,2,23,2,1,2,52,32,2,3,2,1,1,2.0,0.03,57.56,7478,0.0,2.0
4,2,24,2,1,3,5,40,4,3,4,1,1,2.0,0.05,57.61,2904,0.0,1.0
4,2,25,2,1,4,54,14,4,5,4,1,1,2.0,0.32,57.93,9362,0.0,1.0
4,2,26,2,1,5,9,47,2,4,2,1,1,2.0,0.0,57.93,1561,0.0,1.0
4,2,27,2,2,1,24,21,2,4,2,1,1,1.0,0.67,58.6,4184,1.0,1.0
4,2,28,2,2,2,47,12,2,4,4,2,1,2.0,0.53,59.13,1614,0.0,2.0
4,2,29,2,2,3,36,45,5,3,5,1,1,1.0,0.36,59.49,14475,1.0,2.0
4,2,30,2,2,4,35,53,3,2,2,2,1,2.0,0.48,59.97,8117,0.0,2.0
4,2,31,2,2,5,6,22,3,4,3,1,1,1.0,0.37,60.34,2014,1.0,2.0
4,2,32,2,1,1,41,29,2,3,3,2,1,1.0,0.34,60.68,3483,1.0,2.0
4,2,33,2,1,2,3,10,4,3,3,2,1,1.0,0.47,61.15,1549,1.0,1.0
4,2,34,2,1,3,36,52,3,4,3,1,1,2.0,0.95,62.1,10284,0.0,2.0
4,2,35,2,2,1,22,4,3,5,3,1,1,1.0,0.52,62.62,7614,1.0,1.0
4,2,36,2,2,2,26,4,5,2,2,2,1,2.0,0.81,63.43,2187,0.0,2.0
4,2,37,2,2,3,44,2,5,4,4,2,1,2.0,0.28,63.71,1777,0.0,1.0
4,2,38,2,2,4,16,51,4,3,4,1,1,1.0,0.47,64.18,6248,1.0,2.0
4,2,39,2,2,5,40,30,2,4,4,2,1,2.0,0.94,65.12,859,0.0,2.0
4,2,40,2,2,6,34,40,3,5,5,2,1,2.0,0.51,65.63,10726,0.0,1.0
4,2,41,2,1,1,47,42,3,5,4,0,0,0.0,0.0,65.63,9559,,
4,2,42,2,2,1,36,52,5,4,5,1,1,1.0,0.42,66.05,4287,1.0,
4,2,43,2,1,1,40,10,4,5,4,1,1,2.0,0.88,66.93,12817,0.0,1.0
4,2,44,2,1,2,12,19,5,3,5,1,1,2.0,0.61,67.54,2477,0.0,1.0
4,2,45,2,1,3,3,2,5,3,5,1,1,2.0,0.03,67.57,3320,0.0,1.0
4,2,46,2,1,4,31,42,3,4,3,1,1,2.0,1.13,68.7,10369,0.0,1.0
4,2,47,2,1,5,44,26,5,2,3,0,0,0.0,0.0,68.7,8864,,
4,2,48,2,2,1,21,33,2,4,2,1,1,1.0,0.53,69.23,4807,1.0,
4,2,49,2,2,2,20,51,2,4,2,1,1,1.0,0.67,69.9,3621,1.0,1.0
4,2,50,2,1,1,4,35,5,4,5,1,1,2.0,1.04,70.94,5090,0.0,1.0
4,2,51,2,1,2,52,31,5,4,4,2,1,1.0,0.42,71.36,7187,1.0,2.0
4,2,52,2,1,3,12,50,4,3,4,1,1,2.0,0.47,71.83,1345,0.0,2.0
4,2,53,2,1,4,38,39,5,3,5,1,1,2.0,0.34,72.17,11161,0.0,1.0
4,2,54,2,1,5,31,7,2,5,5,2,1,1.0,0.4,72.57,2249,1.0,2.0
4,2,55,2,1,6,31,11,3,5,5,2,1,1.0,0.56,73.13,1820,1.0,1.0
4,2,56,2,2,1,24,32,5,4,5,1,1,1.0,0.68,73.81,6801,1.0,2.0
4,2,57,2,2,2,14,36,5,4,5,1,1,1.0,0.44,74.25,3150,1.0,1.0
4,2,58,2,2,3,19,39,3,2,3,1,1,1.0,0.4,74.65,5645,1.0,1.0
4,2,59,2,2,4,28,20,4,5,4,1,1,1.0,0.47,75.12,3834,1.0,1.0
4,2,60,2,2,5,17,21,4,2,3,0,0,0.0,0.0,75.12,5789,,
4,2,61,2,1,1,21,18,5,2,5,1,1,2.0,0.81,75.93,6350,0.0,
4,2,62,2,1,2,37,5,3,2,2,2,1,1.0,0.4,76.33,1598,1.0,2.0
4,2,63,2,1,3,38,49,4,2,4,1,1,2.0,0.44,76.77,8683,0.0,2.0
4,2,64,2,2,1,35,6,4,2,2,2,1,2.0,0.47,77.24,1245,0.0,2.0
4,2,65,2,2,2,17,45,4,3,4,1,1,1.0,0.56,77.8,5273,1.0,2.0
4,2,66,2,2,3,23,41,4,2,4,1,1,1.0,0.43,78.23,4948,1.0,1.0
4,2,67,2,2,4,35,31,5,3,3,2,1,2.0,0.43,78.66,8523,0.0,2.0
4,2,68,2,1,1,43,19,5,4,4,2,1,1.0,0.45,79.11,4132,1.0,1.0
4,2,69,2,1,2,10,49,3,5,3,1,1,2.0,0.46,79.57,1564,0.0,2.0
4,2,70,2,2,1,45,39,3,4,4,2,1,2.0,1.22,80.79,10058,0.0,2.0
4,2,71,2,2,2,41,31,5,2,2,2,1,2.0,0.21,81.0,9797,0.0,1.0
4,2,72,2,2,3,43,42,2,4,4,2,1,2.0,0.72,81.72,8891,0.0,1.0
4,2,73,2,2,4,51,36,5,3,3,2,1,2.0,0.07,81.79,9877,0.0,1.0
4,2,74,2,2,5,46,7,2,5,5,2,1,2.0,0.52,82.31,1512,0.0,1.0
4,2,75,2,2,6,32,51,3,2,3,1,1,1.0,0.43,82.74,8457,1.0,2.0
4,2,76,2,1,1,29,52,4,5,4,1,1,2.0,0.75,83.49,3749,0.0,1.0
4,2,77,2,2,1,4,46,4,2,4,1,1,1.0,0.57,84.06,3371,1.0,1.0
4,2,78,2,2,2,29,50,2,5,2,1,1,1.0,0.48,84.54,3666,1.0,1.0
4,2,79,2,2,3,36,26,5,2,2,2,1,2.0,0.56,85.1,7837,0.0,2.0
4,2,80,2,1,1,25,18,3,4,4,2,1,1.0,0.69,85.79,5217,1.0,1.0
4,2,81,2,1,2,31,34,5,2,5,1,1,2.0,0.98,86.77,7629,0.0,2.0
4,2,82,2,1,3,8,10,4,5,4,1,1,2.0,0.46,87.23,1433,0.0,1.0
4,2,83,2,1,4,36,50,4,5,4,1,1,2.0,0.18,87.41,8941,0.0,1.0
4,2,84,2,2,1,32,20,4,3,3,2,1,2.0,0.02,87.43,5125,0.0,2.0
4,2,1,3,2,1,6,9,3,2,2,2,1,2.0,0.64,88.07,1391,0.0,
4,2,2,3,1,1,11,1,4,5,4,1,1,2.0,0.3,88.37,1365,0.0,2.0
4,2,3,3,1,2,33,11,3,5,5,2,1,1.0,0.51,88.88,892,1.0,2.0
4,2,4,3,2,1,54,5,3,5,5,2,1,2.0,0.33,89.21,2055,0.0,1.0
4,2,5,3,2,2,19,27,4,3,3,2,1,2.0,0.28,89.49,4369,0.0,1.0
4,2,6,3,2,3,43,37,4,3,4,1,1,1.0,0.54,90.03,9648,1.0,2.0
4,2,7,3,1,1,12,54,3,5,3,1,1,2.0,0.84,90.87,2411,0.0,1.0
4,2,8,3,2,1,41,14,2,3,3,2,1,2.0,1.5,92.37,3817,0.0,2.0
4,2,9,3,2,2,41,3,5,2,2,2,1,2.0,0.02,92.39,1278,0.0,1.0
4,2,10,3,1,1,47,44,5,2,5,1,1,2.0,0.99,93.38,10920,0.0,2.0
4,2,11,3,1,2,47,9,5,4,5,1,1,2.0,0.32,93.7,7808,0.0,1.0
4,2,12,3,1,3,24,3,4,3,3,2,1,1.0,0.34,94.04,3014,1.0,2.0
4,2,13,3,1,4,44,9,5,3,3,2,1,1.0,0.54,94.58,1339,1.0,1.0
4,2,14,3,2,1,25,45,2,3,2,1,1,1.0,0.68,95.26,4322,1.0,2.0
4,2,15,3,2,2,9,4,4,5,5,2,1,2.0,0.83,96.09,1859,0.0,2.0
4,2,16,3,2,3,13,47,3,4,3,1,1,1.0,0.73,96.82,6231,1.0,2.0
4,2,17,3,2,4,36,25,5,3,3,2,1,2.0,0.74,97.56,6059,0.0,2.0
4,2,18,3,2,5,32,45,5,4,5,1,1,1.0,0.72,98.28,7046,1.0,2.0
4,2,19,3,1,1,39,44,5,2,5,1,1,2.0,0.34,98.62,7930,0.0,1.0
4,2,20,3,1,2,18,2,3,2,2,2,1,1.0,0.37,98.99,1498,1.0,2.0
4,2,21,3,1,3,44,13,5,3,3,2,1,1.0,0.48,99.47,3851,1.0,1.0
4,2,22,3,1,4,11,18,2,5,2,1,1,2.0,1.06,100.53,1055,0.0,2.0
4,2,23,3,1,5,13,14,2,5,2,1,1,2.0,0.8,101.33,3122,0.0,1.0
4,2,24,3,2,1,43,39,4,5,4,1,1,1.0,0.43,101.76,10163,1.0,1.0
4,2,25,3,2,2,16,36,4,2,4,1,1,1.0,0.56,102.32,6009,1.0,1.0
4,2,26,3,2,3,42,14,5,2,2,2,1,2.0,0.54,102.86,4230,0.0,2.0
4,2,27,3,2,4,19,26,3,4,3,1,1,1.0,0.26,103.12,5867,1.0,2.0
4,2,28,3,1,1,11,38,3,2,3,1,1,2.0,0.27,103.39,893,0.0,1.0
4,2,29,3,1,2,30,38,4,2,4,1,1,2.0,0.72,104.11,3831,0.0,1.0
4,2,30,3,1,3,22,14,3,4,4,2,1,1.0,0.46,104.57,4203,1.0,2.0
4,2,31,3,1,4,52,47,5,3,5,1,1,2.0,1.08,105.65,7264,0.0,2.0
4,2,32,3,1,5,42,20,2,5,5,2,1,1.0,0.43,106.08,5147,1.0,2.0
4,2,33,3,1,6,46,11,2,4,4,2,1,1.0,0.23,106.31,1179,1.0,1.0
4,2,34,3,2,1,33,21,3,2,3,1,1,1.0,0.35,106.66,5225,1.0,2.0
4,2,35,3,2,2,28,51,4,2,4,1,1,1.0,0.62,107.28,3158,1.0,1.0
4,2,36,3,2,3,14,19,5,4,5,1,1,1.0,0.49,107.77,3621,1.0,1.0
4,2,37,3,2,4,3,47,2,3,3,2,1,2.0,0.68,108.45,11378,0.0,2.0
4,2,38,3,2,5,51,19,4,3,3,2,1,2.0,0.94,109.39,6248,0.0,1.0
4,2,39,3,2,6,15,12,2,5,5,2,1,2.0,0.2,109.59,1020,0.0,1.0
4,2,40,3,1,1,54,13,2,4,4,2,1,1.0,0.42,110.01,3504,1.0,1.0
4,2,41,3,1,2,2,18,2,5,2,1,1,2.0,0.02,110.03,3298,0.0,2.0
4,2,42,3,1,3,51,48,3,5,3,1,1,2.0,0.41,110.44,7355,0.0,1.0
4,2,43,3,2,1,12,4,3,4,3,1,1,1.0,0.68,111.12,1282,1.0,1.0
4,2,44,3,2,2,47,28,4,5,5,2,1,2.0,0.48,111.6,2892,0.0,2.0
4,2,45,3,2,3,26,37,3,5,5,2,1,2.0,1.08,112.68,10391,0.0,1.0
4,2,46,3,1,1,3,12,2,5,2,1,1,2.0,0.17,112.85,2820,0.0,2.0
4,2,47,3,1,2,33,8,5,4,4,2,1,1.0,0.5,113.35,2481,1.0,2.0
4,2,48,3,1,3,30,35,4,2,4,1,1,2.0,0.13,113.48,3675,0.0,2.0
4,2,49,3,2,1,8,16,5,3,3,2,1,2.0,0.78,114.26,5446,0.0,2.0
4,2,50,3,2,2,29,19,3,4,3,1,1,1.0,0.47,114.73,3338,1.0,2.0
4,2,51,3,2,3,27,7,5,4,4,2,1,2.0,0.73,115.46,3042,0.0,2.0
4,2,52,3,2,4,27,9,5,4,4,2,1,2.0,0.81,116.27,1142,0.0,1.0
4,2,53,3,2,5,23,12,3,2,2,2,1,2.0,0.46,116.73,1286,0.0,1.0
4,2,54,3,2,6,22,17,3,2,3,1,1,1.0,0.6,117.33,5680,1.0,2.0
4,2,55,3,1,1,7,42,2,4,2,1,1,2.0,1.59,118.92,1914,0.0,1.0
4,2,56,3,1,2,8,28,2,3,2,1,1,2.0,0.75,119.67,2650,0.0,1.0
4,2,57,3,1,3,26,16,2,4,2,1,1,2.0,0.49,120.16,3502,0.0,1.0
4,2,58,3,1,4,22,21,4,5,4,1,1,2.0,0.93,121.09,4927,0.0,1.0
4,2,59,3,1,5,3,36,2,4,2,1,1,2.0,0.53,121.62,2024,0.0,1.0
4,2,60,3,1,6,5,33,2,4,2,1,1,2.0,0.73,122.35,1956,0.0,1.0
4,2,61,3,2,1,13,33,3,5,3,1,1,1.0,0.5,122.85,3396,1.0,1.0
4,2,62,3,2,2,50,27,3,4,3,1,1,1.0,0.47,123.32,7018,1.0,1.0
4,2,63,3,2,3,19,40,5,2,2,2,1,2.0,1.1,124.42,9983,0.0,2.0
4,2,64,3,2,4,42,18,2,3,2,1,1,1.0,0.72,125.14,9660,1.0,2.0
4,2,65,3,2,5,51,35,5,3,5,1,1,1.0,0.44,125.58,6023,1.0,1.0
4,2,66,3,1,1,20,21,4,2,4,1,1,2.0,0.55,126.13,4916,0.0,1.0
4,2,67,3,1,2,39,45,4,5,4,1,1,2.0,0.12,126.25,7517,0.0,1.0
4,2,68,3,1,3,30,26,5,3,5,1,1,2.0,0.82,127.07,3182,0.0,1.0
4,2,69,3,1,4,8,54,5,4,5,1,1,2.0,0.97,128.04,2380,0.0,1.0
4,2,70,3,2,1,38,35,2,5,5,2,1,2.0,0.6,128.64,11194,0.0,2.0
4,2,71,3,2,2,41,5,3,2,2,2,1,2.0,0.62,129.26,2439,0.0,1.0
4,2,72,3,2,3,46,1,4,5,5,2,1,2.0,1.07,130.33,1251,0.0,1.0
4,2,73,3,2,4,31,42,4,3,4,1,1,1.0,0.47,130.8,7711,1.0,2.0
4,2,74,3,1,1,25,14,3,4,4,2,1,1.0,0.48,131.28,3240,1.0,2.0
4,2,75,3,2,1,38,10,5,2,2,2,1,2.0,0.17,131.45,1268,0.0,1.0
4,2,76,3,2,2,1,31,4,3,4,1,1,1.0,0.53,131.98,1407,1.0,2.0
4,2,77,3,1,1,21,42,3,5,3,1,1,2.0,0.24,132.22,5236,0.0,1.0
4,2,78,3,1,2,27,19,4,3,4,1,1,2.0,1.01,133.23,3936,0.0,1.0
4,2,79,3,1,3,29,25,2,3,2,1,1,2.0,0.16,133.39,3216,0.0,1.0
4,2,80,3,1,4,2,39,2,4,2,1,1,2.0,0.49,133.88,1357,0.0,1.0
4,2,81,3,1,5,19,9,5,2,5,1,1,2.0,0.5,134.38,5236,0.0,1.0
4,2,82,3,2,1,3,8,4,2,2,2,1,2.0,0.38,134.76,2144,0.0,2.0
4,2,83,3,1,1,23,33,4,2,4,1,1,2.0,0.69,135.45,4376,0.0,2.0
4,2,84,3,1,2,52,39,2,3,2,1,1,2.0,0.38,135.83,6070,0.0,1.0
5,1,1,1,1,1,18,8,4,2,2,2,1,2.0,0.56,0.56,3238,1.0,
5,1,2,1,1,2,4,44,4,3,3,2,1,2.0,0.64,1.2,2609,1.0,1.0
5,1,3,1,1,3,26,31,5,2,5,1,1,1.0,0.36,1.56,4577,0.0,2.0
5,1,4,1,2,1,51,26,4,2,2,2,1,1.0,0.64,2.2,6008,0.0,2.0
5,1,5,1,2,2,49,5,4,5,4,1,1,2.0,1.06,3.26,9225,1.0,2.0
5,1,6,1,2,3,7,42,3,4,3,1,1,2.0,0.48,3.74,2047,1.0,1.0
5,1,7,1,2,4,3,16,2,4,4,2,1,1.0,0.54,4.28,5817,0.0,2.0
5,1,8,1,2,5,25,47,2,5,2,1,1,2.0,0.58,4.86,4578,1.0,2.0
5,1,9,1,2,6,37,40,4,3,3,2,1,1.0,0.48,5.34,5247,0.0,2.0
5,1,10,1,1,1,17,12,4,2,4,1,1,1.0,0.59,5.93,1818,0.0,2.0
5,1,11,1,1,2,2,52,2,4,2,1,1,1.0,0.43,6.36,2355,0.0,1.0
5,1,12,1,1,3,22,36,4,2,4,1,1,1.0,0.76,7.12,2242,0.0,1.0
5,1,13,1,1,4,35,2,3,2,3,1,1,1.0,0.48,7.6,1307,0.0,1.0
5,1,14,1,1,5,30,5,3,4,3,1,1,1.0,0.51,8.11,5091,0.0,1.0
5,1,15,1,1,6,29,37,5,2,5,1,1,1.0,0.63,8.74,3835,0.0,1.0
5,1,16,1,2,1,42,46,2,5,5,2,1,1.0,0.51,9.25,5731,0.0,2.0
5,1,17,1,1,1,25,28,4,5,5,2,1,2.0,0.45,9.7,2732,1.0,1.0
5,1,18,1,1,2,41,22,4,2,2,2,1,2.0,0.11,9.81,1988,1.0,1.0
5,1,19,1,2,1,9,20,4,5,4,1,1,2.0,0.64,10.45,2899,1.0,2.0
5,1,20,1,2,2,20,1,2,3,2,1,1,2.0,0.84,11.29,853,1.0,1.0
5,1,21,1,2,3,19,20,5,4,5,1,1,2.0,1.27,12.56,2212,1.0,1.0
5,1,22,1,2,4,28,32,5,4,4,2,1,1.0,0.42,12.98,6891,0.0,2.0
5,1,23,1,2,5,35,6,2,4,2,1,1,2.0,0.9,13.88,5779,1.0,2.0
5,1,24,1,1,1,7,15,2,4,2,1,1,1.0,0.65,14.53,770,0.0,1.0
5,1,25,1,1,2,7,51,4,3,3,2,1,2.0,0.77,15.3,4020,1.0,2.0
5,1,26,1,1,3,28,21,3,5,5,2,1,2.0,0.31,15.61,4309,1.0,1.0
5,1,27,1,1,4,4,41,3,2,3,1,1,1.0,0.58,16.19,2028,0.0,2.0
5,1,28,1,2,1,47,20,2,5,5,2,1,1.0,0.6,16.79,4132,0.0,2.0
5,1,29,1,2,2,15,7,3,5,3,1,1,2.0,0.84,17.63,5892,1.0,2.0
5,1,30,1,2,3,26,54,3,2,2,2,1,1.0,0.65,18.28,7292,0.0,2.0
5,1,31,1,2,4,54,43,2,5,2,1,1,2.0,0.82,19.1,1291,1.0,2.0
5,1,32,1,1,1,20,17,5,2,5,1,1,1.0,0.64,19.74,1951,0.0,1.0
5,1,33,1,1,2,18,13,3,2,3,1,1,1.0,0.36,20.1,4059,0.0,1.0
5,1,34,1,1,3,27,53,5,2,5,1,1,1.0,0.5,20.6,4483,0.0,1.0
5,1,35,1,1,4,53,21,5,3,3,2,1,2.0,0.43,21.03,3286,1.0,2.0
5,1,36,1,1,5,52,16,4,3,3,2,1,2.0,0.62,21.65,5892,1.0,1.0
5,1,37,1,2,1,46,15,5,3,5,1,1,2.0,0.0,21.65,2040,1.0,2.0
5,1,38,1,2,2,10,5,5,3,3,2,1,1.0,0.67,22.32,1905,0.0,2.0
5,1,39,1,2,3,31,38,3,4,3,1,1,2.0,0.12,22.44,1482,1.0,2.0
5,1,40,1,1,1,52,48,5,2,3,0,0,0.0,0.0,22.44,1290,,
5,1,41,1,2,1,9,36,3,4,4,2,1,1.0,0.56,23.0,4497,0.0,
5,1,42,1,2,2,51,18,3,5,3,1,1,2.0,0.6,23.6,3404,1.0,2.0
5,1,43,1,1,1,32,50,5,2,5,1,1,1.0,0.39,23.99,2172,0.0,1.0
5,1,44,1,1,2,47,12,2,3,3,2,1,2.0,0.47,24.46,3037,1.0,2.0
5,1,45,1,1,3,16,1,3,2,3,1,1,1.0,0.38,24.84,4102,0.0,2.0
5,1,46,1,1,4,31,10,3,5,5,2,1,2.0,0.79,25.63,6516,1.0,2.0
5,1,47,1,2,1,32,9,2,3,3,2,1,1.0,0.56,26.19,2338,0.0,1.0
5,1,48,1,2,2,49,43,2,4,3,0,0,0.0,0.0,26.19,2939,,
5,1,49,1,2,3,25,26,3,2,3,1,1,2.0,1.3,27.49,1370,1.0,
5,1,50,1,2,4,36,35,4,3,3,2,1,1.0,0.57,28.06,3931,0.0,2.0
5,1,51,1,1,1,44,18,2,4,4,2,1,2.0,0.2,28.26,2252,1.0,1.0
5,1,52,1,1,2,19,54,2,3,3,2,1,2.0,0.68,28.94,2349,1.0,1.0
5,1,53,1,1,3,19,21,5,3,3,2,1,2.0,0.02,28.96,2781,1.0,1.0
5,1,54,1,1,4,50,10,5,2,5,1,1,1.0,0.5,29.46,5223,0.0,2.0
5,1,55,1,1,5,39,51,5,3,5,1,1,1.0,0.49,29.95,9148,0.0,1.0
5,1,56,1,1,6,7,26,2,3,3,2,1,2.0,0.5,30.45,3643,1.0,2.0
5,1,57,1,2,1,17,25,5,4,5,1,1,2.0,0.35,30.8,5012,1.0,2.0
5,1,58,1,2,2,37,42,2,5,2,1,1,2.0,1.02,31.82,3052,1.0,1.0
5,1,59,1,1,1,10,18,2,4,4,2,1,2.0,0.7,32.52,3979,1.0,2.0
5,1,60,1,1,2,18,30,3,2,2,2,1,2.0,0.92,33.44,3220,1.0,1.0
5,1,61,1,2,1,4,47,4,3,3,2,1,1.0,0.59,34.03,1822,0.0,1.0
5,1,62,1,2,2,17,4,4,5,5,2,1,1.0,0.57,34.6,1292,0.0,1.0
5,1,63,1,2,3,23,28,3,5,3,1,1,2.0,0.52,35.12,9460,1.0,2.0
5,1,64,1,2,4,14,51,3,4,3,1,1,2.0,0.82,35.94,3635,1.0,1.0
5,1,65,1,2,5,12,25,4,5,5,2,1,1.0,0.57,36.51,2071,0.0,2.0
5,1,66,1,1,1,15,49,4,3,4,1,1,1.0,0.47,36.98,3955,0.0,2.0
5,1,67,1,2,1,25,1,4,2,2,2,1,1.0,0.46,37.44,3924,0.0,2.0
5,1,68,1,2,2,50,29,3,4,4,2,1,1.0,0.47,37.91,6484,0.0,1.0
5,1,69,1,2,3,39,10,2,3,3,2,1,1.0,0.33,38.24,1339,0.0,1.0
5,1,70,1,1,1,3,39,4,5,5,2,1,2.0,0.39,38.63,2599,1.0,1.0
5,1,71,1,1,2,9,10,2,3,3,2,1,2.0,0.56,39.19,2804,1.0,1.0
5,1,72,1,1,3,10,9,5,4,4,2,1,2.0,0.65,39.84,1185,1.0,1.0
5,1,73,1,2,1,4,3,2,5,5,2,1,1.0,0.67,40.51,3554,0.0,1.0
5,1,74,1,1,1,26,28,3,5,5,2,1,2.0,0.33,40.84,1172,1.0,1.0
5,1,75,1,1,2,31,41,5,4,5,1,1,1.0,0.57,41.41,3109,0.0,2.0
5,1,76,1,1,3,22,43,5,3,5,1,1,1.0,0.59,42.0,2620,0.0,1.0
5,1,77,1,1,4,16,45,5,4,4,2,1,2.0,0.94,42.94,5748,1.0,2.0
5,1,78,1,1,5,52,2,5,3,3,2,1,2.0,0.03,42.97,1667,1.0,1.0
5,1,79,1,2,1,29,34,2,5,5,2,1,1.0,0.52,43.49,5291,0.0,1.0
5,1,80,1,2,2,50,28,3,5,5,2,1,1.0,0.53,44.02,3649,0.0,1.0
5,1,81,1,2,3,7,1,3,4,3,1,1,2.0,0.03,44.05,2434,1.0,2.0
5,1,82,1,2,4,51,9,4,2,2,2,1,1.0,0.41,44.46,2851,0.0,2.0
5,1,83,1,2,5,12,4,5,4,4,2,1,1.0,0.63,45.09,2522,0.0,1.0
5,1,84,1,2,6,53,48,4,5,4,1,1,2.0,0.44,45.53,7547,1.0,2.0
5,1,1,2,1,1,2,18,5,3,5,1,1,1.0,0.55,46.08,7305,0.0,
5,1,2,2,1,2,31,45,5,2,2,2,1,2.0,0.54,46.62,7741,1.0,2.0
5,1,3,2,1,3,54,15,4,3,4,1,1,1.0,0.43,47.05,1924,0.0,2.0
5,1,4,2,1,4,19,6,4,5,4,1,1,1.0,0.43,47.48,827,0.0,1.0
5,1,5,2,1,5,28,33,2,5,5,2,1,2.0,0.71,48.19,3020,1.0,2.0
5,1,6,2,1,6,36,47,4,2,3,0,0,0.0,0.0,48.19,3330,,
5,1,7,2,2,1,19,32,3,2,3,1,1,2.0,0.05,48.24,869,1.0,
5,1,8,2,2,2,38,42,3,5,3,1,1,2.0,0.87,49.11,1136,1.0,1.0
5,1,9,2,2,3,43,31,2,5,2,1,1,2.0,0.77,49.88,1326,1.0,1.0
5,1,10,2,2,4,23,14,5,2,5,1,1,2.0,0.11,49.99,1796,1.0,1.0
5,1,11,2,1,1,30,16,4,2,2,2,1,2.0,0.37,50.36,945,1.0,2.0
5,1,12,2,1,2,43,45,4,3,3,2,1,2.0,0.96,51.32,2153,1.0,1.0
5,1,13,2,1,3,34,53,5,2,5,1,1,1.0,0.44,51.76,9275,0.0,2.0
5,1,14,2,1,4,32,12,4,3,3,2,1,2.0,0.65,52.41,8892,1.0,2.0
5,1,15,2,1,5,3,49,5,4,4,2,1,2.0,0.61,53.02,3580,1.0,1.0
5,1,16,2,2,1,47,11,5,4,5,1,1,2.0,0.51,53.53,8660,1.0,2.0
5,1,17,2,2,2,15,48,2,3,2,1,1,2.0,0.03,53.56,1621,1.0,1.0
5,1,18,2,2,3,29,10,2,4,2,1,1,2.0,0.05,53.61,1940,1.0,1.0
5,1,19,2,2,4,46,15,3,5,3,1,1,2.0,0.32,53.93,3131,1.0,1.0
5,1,20,2,2,5,54,12,2,3,2,1,1,2.0,0.0,53.93,3821,1.0,1.0
5,1,21,2,1,1,2,16,5,3,3,2,1,2.0,1.19,55.12,1668,1.0,2.0
5,1,22,2,2,1,4,27,3,2,3,1,1,2.0,0.53,55.65,3228,1.0,2.0
5,1,23,2,2,2,5,19,4,2,2,2,1,1.0,0.36,56.01,6128,0.0,2.0
5,1,24,2,1,1,43,34,4,2,2,2,1,2.0,0.48,56.49,7468,1.0,1.0
5,1,25,2,1,2,29,35,5,3,5,1,1,1.0,0.37,56.86,4730,0.0,2.0
5,1,26,2,1,3,14,30,4,5,5,2,1,2.0,0.38,57.24,2830,1.0,2.0
5,1,27,2,2,1,44,25,2,5,2,1,1,2.0,0.95,58.19,2244,1.0,2.0
5,1,28,2,2,2,43,45,4,5,5,2,1,1.0,0.52,58.71,3540,0.0,2.0
5,1,29,2,2,3,40,44,4,3,3,2,1,1.0,0.58,59.29,5861,0.0,1.0
5,1,30,2,1,1,53,44,3,2,2,2,1,2.0,0.28,59.57,6172,1.0,1.0
5,1,31,2,1,2,53,34,5,4,4,2,1,2.0,0.38,59.95,6181,1.0,1.0
5,1,32,2,2,1,10,15,5,2,2,2,1,1.0,0.36,60.31,1235,0.0,1.0
5,1,33,2,2,2,29,8,5,2,2,2,1,1.0,0.34,60.65,1692,0.0,1.0
5,1,34,2,2,3,39,2,2,3,2,1,1,2.0,0.94,61.59,1564,1.0,2.0
5,1,35,2,2,4,45,50,2,5,5,2,1,1.0,0.5,62.09,7971,0.0,2.0
5,1,36,2,2,5,41,12,3,2,3,1,1,2.0,0.2,62.29,2931,1.0,2.0
5,1,37,2,2,6,36,19,3,5,3,1,1,2.0,0.88,63.17,6675,1.0,1.0
5,1,38,2,1,1,50,31,3,4,3,1,1,1.0,0.53,63.7,4170,0.0,1.0
5,1,39,2,1,2,23,22,5,4,4,2,1,2.0,0.03,63.73,2804,1.0,2.0
5,1,40,2,1,3,53,41,5,3,5,1,1,1.0,0.66,64.39,3413,0.0,2.0
5,1,41,2,1,4,6,20,2,4,2,1,1,1.0,0.53,64.92,3012,0.0,1.0
5,1,42,2,2,1,20,9,2,3,3,2,1,1.0,0.67,65.59,1084,0.0,2.0
5,1,43,2,1,1,53,32,2,4,5,0,0,0.0,0.0,65.59,2427,,
5,1,44,2,1,2,46,19,2,3,2,1,1,1.0,0.63,66.22,991,0.0,
5,1,45,2,2,1,38,12,5,3,5,1,1,2.0,0.18,66.4,2178,1.0,1.0
5,1,46,2,2,2,48,29,2,4,2,1,1,2.0,0.47,66.87,3399,1.0,1.0
5,1,47,2,1,1,25,27,4,2,4,1,1,1.0,0.46,67.33,2188,0.0,1.0
5,1,48,2,1,2,6,15,2,4,2,1,1,1.0,0.4,67.73,3829,0.0,1.0
5,1,49,2,1,3,26,49,5,2,5,1,1,1.0,0.56,68.29,8643,0.0,1.0
5,1,50,2,1,4,15,32,4,2,4,1,1,1.0,0.68,68.97,12252,0.0,1.0
5,1,51,2,1,5,50,16,2,4,2,1,1,1.0,0.44,69.41,1351,0.0,1.0
5,1,52,2,1,6,15,45,2,3,2,1,1,1.0,0.4,69.81,3723,0.0,1.0
5,1,53,2,2,1,27,32,3,2,3,1,1,2.0,0.38,70.19,1276,1.0,1.0
5,1,54,2,1,1,4,2,5,4,4,2,1,2.0,0.81,71.0,4709,1.0,2.0
5,1,55,2,1,2,42,10,4,5,5,2,1,2.0,0.1,71.1,4028,1.0,1.0
5,1,56,2,1,3,49,40,5,4,4,2,1,2.0,0.44,71.54,3403,1.0,1.0
5,1,57,2,1,4,32,35,4,5,5,2,1,2.0,0.47,72.01,1875,1.0,1.0
5,1,58,2,2,1,32,13,2,3,3,2,1,1.0,0.56,72.57,3867,0.0,1.0
5,1,59,2,2,2,50,18,3,2,2,2,1,1.0,0.43,73.0,2780,0.0,1.0
5,1,60,2,2,3,41,9,4,3,3,2,1,1.0,0.48,73.48,979,0.0,1.0
5,1,61,2,1,1,2,9,3,4,4,2,1,2.0,0.3,73.78,1185,1.0,1.0
5,1,62,2,1,2,46,6,4,3,3,2,1,2.0,0.46,74.24,1827,1.0,1.0
5,1,63,2,1,3,25,42,4,3,3,2,1,2.0,1.22,75.46,3561,1.0,1.0
5,1,64,2,1,4,45,37,5,3,3,2,1,2.0,0.21,75.67,2901,1.0,1.0
5,1,65,2,1,5,29,14,3,4,4,2,1,2.0,0.72,76.39,2316,1.0,1.0
5,1,66,2,2,1,40,18,3,4,3,1,1,2.0,0.07,76.46,6853,1.0,2.0
5,1,67,2,2,2,20,4,5,2,2,2,1,1.0,0.5,76.96,3339,0.0,2.0
5,1,68,2,2,3,4,21,3,2,2,2,1,1.0,0.43,77.39,1308,0.0,1.0
5,1,69,2,2,4,9,51,3,4,4,2,1,1.0,0.56,77.95,6508,0.0,1.0
5,1,70,2,2,5,22,37,3,5,5,2,1,1.0,0.57,78.52,1293,0.0,1.0
5,1,71,2,1,1,7,2,3,5,3,1,1,1.0,0.48,79.0,1595,0.0,2.0
5,1,72,2,1,2,18,31,2,5,2,1,1,1.0,0.26,79.26,1356,0.0,1.0
5,1,73,2,1,3,25,17,3,4,3,1,1,1.0,0.52,79.78,3881,0.0,1.0
5,1,74,2,2,1,50,51,4,5,5,2,1,1.0,0.69,80.47,4171,0.0,2.0
5,1,75,2,2,2,40,14,2,5,5,2,1,1.0,0.62,81.09,2602,0.0,1.0
5,1,76,2,2,3,19,22,3,5,5,2,1,1.0,0.31,81.4,860,0.0,1.0
5,1,77,2,2,4,33,43,2,4,2,1,1,2.0,0.46,81.86,1489,1.0,2.0
5,1,78,2,2,5,24,2,2,5,5,2,1,1.0,0.42,82.28,3036,0.0,2.0
5,1,79,2,2,6,51,40,5,4,4,2,1,1.0,0.38,82.66,5866,0.0,1.0
5,1,80,2,1,1,35,43,4,2,2,2,1,2.0,0.64,83.3,3326,1.0,1.0
5,1,81,2,2,1,33,50,3,4,4,2,1,1.0,0.45,83.75,5467,0.0,1.0
5,1,82,2,2,2,21,10,3,5,3,1,1,2.0,0.53,84.28,3644,1.0,2.0
5,1,83,2,2,3,18,27,4,5,5,2,1,1.0,0.46,84.74,1088,0.0,2.0
5,1,84,2,2,4,29,17,5,3,3,2,1,1.0,0.45,85.19,1083,0.0,1.0
5,1,1,3,1,1,48,12,3,5,3,1,1,1.0,0.54,85.73,3250,0.0,
5,1,2,3,1,2,37,22,5,2,5,1,1,1.0,0.59,86.32,1565,0.0,1.0
5,1,3,3,1,3,46,4,5,2,2,2,1,2.0,1.5,87.82,6396,1.0,2.0
5,1,4,3,1,4,10,42,5,4,5,1,1,1.0,0.34,88.16,2677,0.0,2.0
5,1,5,3,2,1,18,19,3,5,3,1,1,2.0,0.02,88.18,1683,1.0,1.0
5,1,6,3,2,2,39,29,3,4,3,1,1,2.0,0.99,89.17,1051,1.0,1.0
5,1,7,3,2,3,17,48,5,2,5,1,1,2.0,0.32,89.49,2172,1.0,1.0
5,1,8,3,2,4,31,39,3,2,3,1,1,2.0,0.65,90.14,1069,1.0,1.0
5,1,9,3,2,5,25,32,5,3,5,1,1,2.0,1.23,91.37,3015,1.0,1.0
5,1,10,3,1,1,47,10,4,3,4,1,1,1.0,0.58,91.95,1884,0.0,1.0
5,1,11,3,1,2,42,47,3,4,3,1,1,1.0,0.73,92.68,2767,0.0,1.0
5,1,12,3,1,3,53,2,3,4,3,1,1,1.0,0.56,93.24,5282,0.0,1.0
5,1,13,3,2,1,6,32,2,5,2,1,1,2.0,1.38,94.62,844,1.0,1.0
5,1,14,3,1,1,37,54,4,2,4,1,1,1.0,0.46,95.08,4531,0.0,1.0
5,1,15,3,1,2,15,45,4,3,4,1,1,1.0,0.37,95.45,1499,0.0,1.0
5,1,16,3,2,1,1,14,5,3,5,1,1,2.0,0.4,95.85,3036,1.0,1.0
5,1,17,3,2,2,17,12,3,4,4,2,1,1.0,0.64,96.49,1788,0.0,2.0
5,1,18,3,2,3,21,5,2,4,4,2,1,1.0,0.37,96.86,4051,0.0,1.0
5,1,19,3,1,1,21,45,2,4,2,1,1,1.0,0.57,97.43,4764,0.0,2.0
5,1,20,3,1,2,8,28,5,4,5,1,1,1.0,0.43,97.86,3932,0.0,1.0
5,1,21,3,1,3,34,38,5,4,5,1,1,1.0,0.56,98.42,3876,0.0,1.0
5,1,22,3,1,4,29,46,4,2,4,1,1,1.0,0.37,98.79,1844,0.0,1.0
5,1,23,3,1,5,20,7,5,2,5,1,1,1.0,0.51,99.3,943,0.0,1.0
5,1,24,3,2,1,12,40,2,4,2,1,1,2.0,0.27,99.57,2388,1.0,1.0
5,1,25,3,2,2,48,27,3,2,2,2,1,1.0,0.55,100.12,1835,0.0,2.0
5,1,26,3,1,1,51,21,4,3,3,2,1,2.0,0.35,100.47,4182,1.0,1.0
5,1,27,3,1,2,51,13,3,5,3,1,1,1.0,0.65,101.12,2599,0.0,2.0
5,1,28,3,1,3,1,36,4,3,3,2,1,2.0,0.2,101.32,10654,1.0,2.0
5,1,29,3,1,4,27,25,5,3,3,2,1,2.0,1.0,102.32,8333,1.0,1.0
5,1,30,3,1,5,7,21,4,2,4,1,1,1.0,0.49,102.81,1411,0.0,2.0
5,1,31,3,1,6,12,19,4,5,5,2,1,2.0,0.68,103.49,4206,1.0,2.0
5,1,32,3,2,1,29,32,3,2,3,1,1,2.0,0.94,104.43,10016,1.0,2.0
5,1,33,3,2,2,19,42,2,5,2,1,1,2.0,0.2,104.63,931,1.0,1.0
5,1,34,3,2,3,4,34,4,5,4,1,1,2.0,0.17,104.8,2827,1.0,1.0
5,1,35,3,2,4,7,54,4,2,4,1,1,2.0,0.02,104.82,2531,1.0,1.0
5,1,36,3,1,1,35,18,5,4,4,2,1,2.0,0.41,105.23,2036,1.0,2.0
5,1,37,3,2,1,29,12,4,5,5,2,1,1.0,0.68,105.91,1211,0.0,1.0
5,1,38,3,2,2,21,19,5,2,2,2,1,1.0,0.5,106.41,1171,0.0,1.0
5,1,39,3,2,3,50,4,5,4,4,2,1,1.0,0.64,107.05,1268,0.0,1.0
5,1,40,3,2,4,19,9,4,2,2,2,1,1.0,0.42,107.47,619,0.0,1.0
5,1,41,3,2,5,26,21,2,3,3,2,1,1.0,0.5,107.97,2506,0.0,1.0
5,1,42,3,2,6,28,37,3,2,2,2,1,1.0,0.41,108.38,4101,0.0,1.0
5,1,43,3,1,1,46,18,3,5,5,2,1,2.0,0.78,109.16,1490,1.0,1.0
5,1,44,3,2,1,26,25,4,5,4,1,1,2.0,0.38,109.54,2476,1.0,2.0
5,1,45,3,2,2,38,36,3,4,3,1,1,2.0,0.73,110.27,6730,1.0,1.0
5,1,46,3,2,3,35,6,2,5,5,2,1,1.0,0.58,110.85,980,0.0,2.0
5,1,47,3,2,4,32,14,4,2,2,2,1,1.0,0.49,111.34,4530,0.0,1.0
5,1,48,3,2,5,11,22,2,5,5,2,1,1.0,0.6,111.94,1901,0.0,1.0
5,1,49,3,2,6,18,28,4,5,5,2,1,1.0,0.77,112.71,1790,0.0,1.0
5,1,50,3,1,1,54,11,5,3,3,2,1,2.0,0.75,113.46,2885,1.0,1.0
5,1,51,3,1,2,29,13,5,3,3,2,1,2.0,0.49,113.95,2718,1.0,1.0
5,1,52,3,1,3,32,20,3,4,4,2,1,2.0,0.93,114.88,2424,1.0,1.0
5,1,53,3,1,4,18,4,3,4,4,2,1,2.0,0.53,115.41,844,1.0,1.0
5,1,54,3,1,5,29,7,2,5,5,2,1,2.0,0.73,116.14,1333,1.0,1.0
5,1,55,3,2,1,36,31,5,2,2,2,1,1.0,0.5,116.64,1387,0.0,1.0
5,1,56,3,1,1,42,28,2,3,3,2,1,2.0,0.37,117.01,2454,1.0,1.0
5,1,57,3,1,2,39,50,5,4,5,1,1,1.0,0.65,117.66,6445,0.0,2.0
5,1,58,3,1,3,23,54,2,4,2,1,1,1.0,0.72,118.38,2290,0.0,1.0
5,1,59,3,2,1,44,21,4,5,4,1,1,2.0,0.25,118.63,1555,1.0,1.0
5,1,60,3,2,2,16,43,5,4,5,1,1,2.0,0.55,119.18,978,1.0,1.0
5,1,61,3,2,3,9,28,5,2,5,1,1,2.0,0.12,119.3,1559,1.0,1.0
5,1,62,3,2,4,46,31,3,5,3,1,1,2.0,0.82,120.12,2434,1.0,1.0
5,1,63,3,2,5,51,47,2,3,2,1,1,2.0,0.97,121.09,3036,1.0,1.0
5,1,64,3,1,1,30,34,3,5,3,1,1,1.0,0.53,121.62,2877,0.0,1.0
5,1,65,3,1,2,5,47,2,5,2,1,1,1.0,0.53,122.15,1601,0.0,1.0
5,1,66,3,1,3,30,18,2,4,4,2,1,2.0,1.07,123.22,2500,1.0,2.0
5,1,67,3,1,4,46,1,3,2,2,2,1,2.0,0.37,123.59,4839,1.0,1.0
5,1,68,3,2,1,26,24,2,3,3,2,1,1.0,0.48,124.07,2011,0.0,1.0
5,1,69,3,2,2,23,19,2,4,2,1,1,2.0,0.17,124.24,2926,1.0,2.0
5,1,70,3,1,1,15,20,2,5,2,1,1,1.0,0.53,124.77,2049,0.0,1.0
5,1,71,3,1,2,4,53,2,4,2,1,1,1.0,0.44,125.21,771,0.0,1.0
5,1,72,3,2,1,12,44,3,2,2,2,1,1.0,0.34,125.55,3847,0.0,2.0
5,1,73,3,2,2,26,47,4,2,4,1,1,2.0,1.01,126.56,1332,1.0,2.0
5,1,74,3,2,3,29,2,2,3,2,1,1,2.0,0.16,126.72,2501,1.0,1.0
5,1,75,3,2,4,45,8,4,3,4,1,1,2.0,0.49,127.21,1693,1.0,1.0
5,1,76,3,1,1,22,15,2,3,2,1,1,1.0,0.5,127.71,2878,0.0,1.0
5,1,77,3,1,2,50,29,3,5,3,1,1,1.0,0.47,128.18,2291,0.0,1.0
5,1,78,3,1,3,39,52,5,3,5,1,1,1.0,0.55,128.73,676,0.0,1.0
5,1,79,3,1,4,37,42,2,3,2,1,1,1.0,0.47,129.2,1627,0.0,1.0
5,1,80,3,1,5,41,5,5,3,3,2,1,2.0,0.02,129.22,1930,1.0,2.0
5,1,81,3,1,6,23,22,4,5,4,1,1,1.0,0.53,129.75,3437,0.0,2.0
5,1,82,3,2,1,40,52,4,3,3,2,1,1.0,0.35,130.1,5097,0.0,2.0
5,1,83,3,2,2,52,5,4,3,4,1,1,2.0,0.34,130.44,1787,1.0,2.0
5,1,84,3,2,3,44,11,3,2,3,1,1,2.0,0.06,130.5,980,1.0,1.0
5,1,1,4,1,1,27,28,3,4,4,2,1,2.0,0.02,130.52,4948,1.0,
5,1,2,4,1,2,54,15,4,3,3,2,1,2.0,0.31,130.83,5269,1.0,1.0
5,1,3,4,1,3,13,6,3,5,3,1,1,1.0,0.52,131.35,3699,0.0,2.0
5,1,4,4,2,1,28,50,5,2,2,2,1,1.0,0.49,131.84,5950,0.0,2.0
5,1,5,4,2,2,28,35,5,4,4,2,1,1.0,0.63,132.47,3814,0.0,1.0
5,1,6,4,2,3,7,42,4,5,4,1,1,2.0,0.38,132.85,1189,1.0,2.0
5,1,7,4,2,4,33,1,4,3,4,1,1,2.0,0.5,133.35,3508,1.0,1.0
5,1,8,4,2,5,36,40,5,3,5,1,1,2.0,0.53,133.88,2046,1.0,1.0
5,1,9,4,2,6,7,48,4,2,4,1,1,2.0,0.65,134.53,1275,1.0,1.0
5,1,10,4,1,1,17,36,4,3,4,1,1,1.0,0.56,135.09,1075,0.0,1.0
5,1,11,4,1,2,45,23,5,3,3,2,1,2.0,1.1,136.19,6099,1.0,2.0
5,1,12,4,1,3,46,22,3,4,3,1,1,1.0,0.44,136.63,1739,0.0,2.0
5,1,13,4,1,4,37,29,3,2,3,1,1,1.0,0.53,137.16,5445,0.0,1.0
5,1,14,4,1,5,24,36,5,4,5,1,1,1.0,0.5,137.66,1131,0.0,1.0
5,1,15,4,1,6,26,32,2,5,2,1,1,1.0,0.43,138.09,2330,0.0,1.0
5,1,16,4,2,1,9,47,5,3,5,1,1,2.0,1.51,139.6,1475,1.0,1.0
5,1,17,4,1,1,1,52,2,5,2,1,1,1.0,0.47,140.07,3300,0.0,1.0
5,1,18,4,1,2,12,53,4,2,4,1,1,1.0,0.33,140.4,1338,0.0,1.0
5,1,19,4,2,1,35,40,4,2,2,2,1,1.0,0.71,141.11,4723,0.0,2.0
5,1,20,4,2,2,31,38,4,5,5,2,1,1.0,0.54,141.65,916,0.0,1.0
5,1,21,4,2,3,49,25,3,4,4,2,1,1.0,0.37,142.02,3458,0.0,1.0
5,1,22,4,2,4,29,8,5,4,4,2,1,1.0,0.57,142.59,2165,0.0,1.0
5,1,23,4,2,5,54,42,3,4,3,1,1,2.0,1.1,143.69,3283,1.0,2.0
5,1,24,4,1,1,44,50,2,5,2,1,1,1.0,0.39,144.08,994,0.0,1.0
5,1,25,4,1,2,45,33,2,4,2,1,1,1.0,0.52,144.6,4402,0.0,1.0
5,1,26,4,1,3,46,1,3,5,3,1,1,1.0,0.48,145.08,1635,0.0,1.0
5,1,27,4,1,4,34,10,5,4,5,1,1,1.0,0.36,145.44,3899,0.0,1.0
5,1,28,4,2,1,53,43,2,3,2,1,1,2.0,1.06,146.5,2427,1.0,1.0
5,1,29,4,2,2,20,18,2,3,2,1,1,2.0,0.49,146.99,1795,1.0,1.0
5,1,30,4,2,3,35,36,5,2,5,1,1,2.0,0.75,147.74,2100,1.0,1.0
5,1,31,4,2,4,16,53,3,5,3,1,1,2.0,0.16,147.9,2021,1.0,1.0
5,1,32,4,1,1,33,31,3,5,5,2,1,2.0,0.19,148.09,7482,1.0,2.0
5,1,33,4,1,2,37,29,4,3,4,1,1,1.0,0.54,148.63,2565,0.0,2.0
5,1,34,4,1,3,26,45,2,3,3,2,1,2.0,0.55,149.18,2430,1.0,2.0
5,1,35,4,1,4,10,31,3,2,2,2,1,2.0,1.37,150.55,1127,1.0,1.0
5,1,36,4,1,5,19,53,2,5,2,1,1,1.0,0.47,151.02,3268,0.0,2.0
5,1,37,4,2,1,5,51,4,2,2,2,1,1.0,0.76,151.78,3820,0.0,2.0
5,1,38,4,2,2,34,37,2,4,2,1,1,2.0,1.21,152.99,1756,1.0,2.0
5,1,39,4,2,3,46,1,5,2,2,2,1,1.0,0.27,153.26,924,0.0,2.0
5,1,40,4,1,1,33,15,5,4,5,1,1,1.0,0.3,153.56,3675,0.0,2.0
5,1,41,4,2,1,2,7,2,4,4,2,1,1.0,0.43,153.99,5416,0.0,2.0
5,1,42,4,2,2,45,12,2,5,5,2,1,1.0,0.48,154.47,3189,0.0,1.0
5,1,43,4,1,1,34,43,3,2,4,0,0,0.0,0.0,154.47,6196,,
5,1,44,4,1,2,34,5,2,5,5,2,1,2.0,0.5,154.97,3541,1.0,
5,1,45,4,1,3,27,47,4,2,4,1,1,1.0,0.6,155.57,5451,0.0,2.0
5,1,46,4,1,4,26,12,4,3,3,2,1,2.0,0.16,155.73,4572,1.0,2.0
5,1,47,4,2,1,3,26,5,2,2,2,1,1.0,0.41,156.14,1399,0.0,1.0
5,1,48,4,2,2,3,2,2,4,4,2,1,1.0,0.48,156.62,1692,0.0,1.0
5,1,49,4,2,3,3,38,4,3,4,1,1,2.0,0.49,157.11,2876,1.0,2.0
5,1,50,4,2,4,39,52,4,3,4,1,1,2.0,0.63,157.74,2029,1.0,1.0
5,1,51,4,1,1,18,51,3,2,2,2,1,2.0,1.0,158.74,1869,1.0,2.0
5,1,52,4,1,2,31,11,4,5,5,2,1,2.0,0.79,159.53,3079,1.0,1.0
5,1,53,4,1,3,45,40,3,2,2,2,1,2.0,0.83,160.36,3276,1.0,1.0
5,1,54,4,1,4,22,6,2,4,4,2,1,2.0,0.88,161.24,1388,1.0,1.0
5,1,55,4,1,5,46,40,4,5,5,2,1,2.0,0.8,162.04,2629,1.0,1.0
5,1,56,4,1,6,13,33,3,5,3,1,1,1.0,0.65,162.69,3045,0.0,2.0
5,1,57,4,2,1,3,27,4,2,2,2,1,1.0,0.54,163.23,4468,0.0,2.0
5,1,58,4,2,2,47,34,5,4,4,2,1,1.0,0.42,163.65,2861,0.0,1.0
5,1,59,4,1,1,11,39,2,3,2,1,1,1.0,0.48,164.13,789,0.0,2.0
5,1,60,4,1,2,10,32,2,4,2,1,1,1.0,0.21,164.34,1084,0.0,1.0
5,1,61,4,2,1,9,54,5,3,3,2,1,1.0,0.56,164.9,5697,0.0,2.0
5,1,62,4,2,2,52,29,3,4,3,1,1,2.0,0.56,165.46,7070,1.0,2.0
5,1,63,4,2,3,18,22,4,2,4,1,1,2.0,0.22,165.68,843,1.0,1.0
5,1,64,4,2,4,16,11,5,2,2,2,1,1.0,0.42,166.1,3292,0.0,2.0
5,1,65,4,2,5,16,4,3,2,3,1,1,2.0,0.48,166.58,4334,1.0,2.0
5,1,66,4,1,1,40,29,5,2,5,1,1,1.0,0.54,167.12,5612,0.0,1.0
5,1,67,4,2,1,42,47,2,3,3,2,1,1.0,0.46,167.58,4811,0.0,2.0
5,1,68,4,2,2,7,33,2,4,2,1,1,2.0,0.26,167.84,2102,1.0,2.0
5,1,69,4,2,3,22,42,5,2,2,2,1,1.0,0.5,168.34,2452,0.0,2.0
5,1,70,4,1,1,2,26,4,5,4,1,1,1.0,0.48,168.82,6772,0.0,2.0
5,1,71,4,1,2,41,32,3,4,2,0,0,0.0,0.0,168.82,1165,,
5,1,72,4,1,3,1,9,4,5,4,1,1,1.0,0.39,169.21,2795,0.0,
5,1,73,4,2,1,29,46,3,4,4,2,1,1.0,0.65,169.86,1701,0.0,2.0
5,1,74,4,1,1,40,28,2,3,2,1,1,1.0,0.55,170.41,4188,0.0,2.0
5,1,75,4,1,2,7,30,3,5,3,1,1,1.0,0.65,171.06,1717,0.0,1.0
5,1,76,4,1,3,48,25,3,5,3,1,1,1.0,0.44,171.5,1298,0.0,1.0
5,1,77,4,1,4,32,30,5,4,4,2,1,2.0,0.88,172.38,2326,1.0,2.0
5,1,78,4,1,5,33,7,5,3,3,2,1,2.0,0.52,172.9,5651,1.0,1.0
5,1,79,4,2,1,45,6,2,3,3,2,1,1.0,0.41,173.31,717,0.0,1.0
5,1,80,4,2,2,34,17,5,3,3,2,1,1.0,0.49,173.8,5113,0.0,1.0
5,1,81,4,2,3,42,14,3,2,2,2,1,1.0,0.26,174.06,4100,0.0,1.0
5,1,82,4,2,4,11,45,5,3,3,2,1,1.0,0.63,174.69,2956,0.0,1.0
5,1,83,4,2,5,10,46,4,5,4,1,1,2.0,0.04,174.73,3883,1.0,2.0
5,1,84,4,2,6,21,11,2,5,5,2,1,1.0,0.42,175.15,2124,0.0,2.0
6,2,1,1,1,1,21,22,3,2,2,2,1,1.0,0.59,0.59,10327,1.0,
6,2,2,1,1,2,32,11,5,4,5,1,1,2.0,0.13,0.72,6734,0.0,2.0
6,2,3,1,1,3,40,47,2,5,5,2,1,1.0,0.35,1.07,5919,1.0,2.0
6,2,4,1,2,1,2,32,4,5,5,2,1,2.0,0.81,1.88,4658,0.0,1.0
6,2,5,1,2,2,45,9,3,5,4,0,0,0.0,0.0,1.88,7648,,
6,2,6,1,1,1,16,48,4,5,4,1,1,2.0,0.21,2.09,9204,0.0,
6,2,7,1,2,1,21,23,4,3,3,2,1,2.0,0.76,2.85,17534,0.0,2.0
6,2,8,1,1,1,16,13,3,2,3,1,1,2.0,0.37,3.22,19299,0.0,2.0
6,2,9,1,1,2,29,12,4,2,4,1,1,2.0,0.08,3.3,10610,0.0,1.0
6,2,10,1,2,1,30,9,4,5,5,2,1,2.0,0.04,3.34,4901,0.0,2.0
6,2,11,1,2,2,41,28,4,3,3,2,1,2.0,0.47,3.81,6771,0.0,1.0
6,2,12,1,2,3,1,39,3,4,3,1,1,1.0,0.22,4.03,14595,1.0,2.0
6,2,13,1,2,4,15,39,5,3,3,2,1,2.0,0.17,4.2,21361,0.0,2.0
6,2,14,1,2,5,17,2,4,2,4,1,1,1.0,0.34,4.54,12133,1.0,2.0
6,2,15,1,2,6,3,50,2,5,5,2,1,2.0,0.66,5.2,3282,0.0,2.0
6,2,16,1,1,1,27,12,5,2,2,2,1,1.0,0.57,5.77,10180,1.0,1.0
6,2,17,1,1,2,51,37,4,3,4,1,1,2.0,0.57,6.34,2803,0.0,2.0
6,2,18,1,1,3,19,33,2,5,5,2,1,1.0,0.49,6.83,3027,1.0,2.0
6,2,19,1,1,4,47,48,4,5,4,1,1,2.0,0.51,7.34,4468,0.0,2.0
6,2,20,1,1,5,17,48,5,4,4,2,1,1.0,0.4,7.74,2434,1.0,2.0
6,2,21,1,2,1,17,30,4,3,3,2,1,2.0,0.37,8.11,7860,0.0,1.0
6,2,22,1,2,2,22,40,3,5,3,1,1,1.0,0.46,8.57,8596,1.0,2.0
6,2,23,1,2,3,42,2,4,5,5,2,1,2.0,0.77,9.34,12866,0.0,2.0
6,2,24,1,2,4,19,38,5,4,5,1,1,1.0,0.53,9.87,9347,1.0,2.0
6,2,25,1,1,1,32,33,2,5,2,1,1,2.0,0.33,10.2,4996,0.0,1.0
6,2,26,1,1,2,28,6,2,4,4,2,1,1.0,0.61,10.81,11937,1.0,2.0
6,2,27,1,1,3,51,39,3,4,3,1,1,2.0,1.24,12.05,3489,0.0,2.0
6,2,28,1,1,4,26,52,2,3,3,2,1,1.0,0.37,12.42,2419,1.0,2.0
6,2,29,1,1,5,24,9,5,4,5,1,1,2.0,0.49,12.91,33877,0.0,2.0
6,2,30,1,1,6,9,43,2,4,2,1,1,2.0,0.85,13.76,17523,0.0,1.0
6,2,31,1,2,1,18,54,3,4,4,2,1,2.0,0.74,14.5,7635,0.0,2.0
6,2,32,1,2,2,16,45,3,5,5,2,1,2.0,0.26,14.76,3270,0.0,1.0
6,2,33,1,2,3,34,53,2,3,3,2,1,2.0,0.24,15.0,2340,0.0,1.0
6,2,34,1,2,4,30,9,2,3,2,1,1,1.0,0.41,15.41,5635,1.0,2.0
6,2,35,1,2,5,49,52,4,2,2,2,1,2.0,0.94,16.35,2356,0.0,2.0
6,2,36,1,1,1,40,13,2,3,3,2,1,1.0,0.47,16.82,8740,1.0,1.0
6,2,37,1,1,2,18,30,2,5,2,1,1,2.0,0.43,17.25,6849,0.0,2.0
6,2,38,1,1,3,3,19,3,5,3,1,1,2.0,0.65,17.9,13573,0.0,1.0
6,2,39,1,1,4,16,42,5,3,3,2,1,1.0,0.82,18.72,7877,1.0,2.0
6,2,40,1,2,1,48,18,3,2,2,2,1,2.0,0.64,19.36,4964,0.0,1.0
6,2,41,1,2,2,16,43,3,4,4,2,1,2.0,0.62,19.98,4225,0.0,1.0
6,2,42,1,2,3,1,6,2,4,2,1,1,1.0,0.33,20.31,9589,1.0,2.0
6,2,43,1,1,1,49,24,5,2,2,2,1,1.0,0.52,20.83,3587,1.0,2.0
6,2,44,1,1,2,18,16,4,3,3,2,1,1.0,0.3,21.13,13636,1.0,1.0
6,2,45,1,1,3,11,30,2,3,3,2,1,1.0,0.58,21.71,3812,1.0,1.0
6,2,46,1,1,4,6,4,5,4,4,2,1,1.0,0.63,22.34,4292,1.0,1.0
6,2,47,1,2,1,41,50,4,5,5,2,1,2.0,1.23,23.57,2837,0.0,1.0
6,2,48,1,2,2,54,41,3,2,3,1,1,1.0,0.66,24.23,9972,1.0,2.0
6,2,49,1,2,3,44,34,2,5,2,1,1,1.0,0.41,24.64,2804,1.0,1.0
6,2,50,1,2,4,29,33,3,5,3,1,1,1.0,0.55,25.19,4421,1.0,1.0
6,2,51,1,2,5,26,40,3,5,5,2,1,2.0,0.93,26.12,9700,0.0,2.0
6,2,52,1,1,1,5,24,4,3,3,2,1,1.0,0.37,26.49,2885,1.0,1.0
6,2,53,1,1,2,15,40,3,2,2,2,1,1.0,0.52,27.01,4676,1.0,1.0
6,2,54,1,1,3,27,9,4,2,2,2,1,1.0,0.59,27.6,2772,1.0,1.0
6,2,55,1,2,1,14,45,2,3,2,1,1,1.0,0.35,27.95,6672,1.0,2.0
6,2,56,1,2,2,51,37,3,4,4,2,1,2.0,0.05,28.0,13700,0.0,2.0
6,2,57,1,2,3,19,28,2,4,4,2,1,2.0,0.87,28.87,2342,0.0,1.0
6,2,58,1,2,4,37,53,4,2,4,1,1,1.0,0.5,29.37,4915,1.0,2.0
6,2,59,1,2,5,37,6,5,2,2,2,1,2.0,0.75,30.12,4002,0.0,2.0
6,2,60,1,2,6,16,38,5,3,5,1,1,1.0,0.66,30.78,8211,1.0,2.0
6,2,61,1,1,1,17,26,2,4,2,1,1,2.0,0.73,31.51,4022,0.0,1.0
6,2,62,1,2,1,13,4,5,3,5,1,1,1.0,0.41,31.92,9584,1.0,1.0
6,2,63,1,1,1,29,37,5,3,5,1,1,2.0,0.85,32.77,1221,0.0,1.0
6,2,64,1,1,2,49,24,5,2,5,1,1,2.0,0.42,33.19,6372,0.0,1.0
6,2,65,1,2,1,5,33,5,2,5,1,1,1.0,0.4,33.59,3043,1.0,1.0
6,2,66,1,2,2,34,41,4,3,4,1,1,1.0,0.75,34.34,7940,1.0,1.0
6,2,67,1,1,1,12,21,3,2,3,1,1,2.0,0.54,34.88,3490,0.0,1.0
6,2,68,1,1,2,23,18,4,2,4,1,1,2.0,0.06,34.94,8659,0.0,1.0
6,2,69,1,1,3,21,8,5,3,5,1,1,2.0,0.8,35.74,9315,0.0,1.0
6,2,70,1,1,4,24,30,5,2,3,0,0,0.0,0.0,35.74,6613,,
6,2,71,1,1,5,11,38,3,4,3,1,1,2.0,1.29,37.03,8215,0.0,
6,2,72,1,1,6,14,52,4,5,4,1,1,2.0,0.78,37.81,9685,0.0,1.0
6,2,73,1,2,1,17,23,3,2,2,2,1,2.0,0.87,38.68,3363,0.0,2.0
6,2,74,1,2,2,48,51,5,3,3,2,1,2.0,0.55,39.23,22419,0.0,1.0
6,2,75,1,2,3,54,28,2,4,2,1,1,1.0,0.48,39.71,2816,1.0,2.0
6,2,76,1,2,4,53,45,5,4,4,2,1,2.0,0.91,40.62,15955,0.0,2.0
6,2,77,1,1,1,33,35,5,2,2,2,1,1.0,0.48,41.1,5684,1.0,1.0
6,2,78,1,1,2,16,33,3,5,5,2,1,1.0,0.51,41.61,3254,1.0,1.0
6,2,79,1,1,3,49,34,4,2,2,2,1,1.0,0.44,42.05,2437,1.0,1.0
6,2,80,1,1,4,13,46,2,5,5,2,1,1.0,0.42,42.47,1237,1.0,1.0
6,2,81,1,1,5,41,18,2,3,3,2,1,1.0,0.47,42.94,3940,1.0,1.0
6,2,82,1,2,1,7,11,3,4,4,2,1,2.0,0.62,43.56,9746,0.0,1.0
6,2,83,1,2,2,18,44,5,4,5,1,1,1.0,0.51,44.07,3173,1.0,2.0
6,2,84,1,2,3,10,25,2,4,2,1,1,1.0,0.5,44.57,3538,1.0,1.0
6,2,1,2,1,1,20,11,4,3,3,2,1,1.0,0.24,44.81,7381,1.0,
6,2,2,2,1,2,3,19,5,3,3,2,1,1.0,0.44,45.25,8499,1.0,1.0
6,2,3,2,1,3,45,47,4,3,3,2,1,1.0,0.53,45.78,2241,1.0,1.0
6,2,4,2,1,4,39,17,3,4,4,2,1,1.0,0.54,46.32,2739,1.0,1.0
6,2,5,2,1,5,45,35,3,2,2,2,1,1.0,0.52,46.84,3714,1.0,1.0
6,2,6,2,1,6,53,42,5,2,2,2,1,1.0,0.5,47.34,2673,1.0,1.0
6,2,7,2,2,1,45,7,5,2,2,2,1,2.0,0.66,48.0,3348,0.0,1.0
6,2,8,2,2,2,50,27,4,3,3,2,1,2.0,0.44,48.44,2595,0.0,1.0
6,2,9,2,2,3,51,25,2,5,5,2,1,2.0,0.73,49.17,3187,0.0,1.0
6,2,10,2,2,4,6,44,3,5,5,2,1,2.0,0.78,49.95,2175,0.0,1.0
6,2,11,2,1,1,16,13,3,4,4,2,1,1.0,0.49,50.44,1970,1.0,1.0
6,2,12,2,1,2,13,20,5,3,3,2,1,1.0,0.54,50.98,2516,1.0,1.0
6,2,13,2,1,3,8,27,2,3,3,2,1,1.0,0.46,51.44,2190,1.0,1.0
6,2,14,2,1,4,21,36,2,3,3,2,1,1.0,0.46,51.9,2671,1.0,1.0
6,2,15,2,1,5,26,54,3,4,4,2,1,1.0,0.45,52.35,3991,1.0,1.0
6,2,16,2,2,1,15,24,4,5,5,2,1,2.0,0.05,52.4,2372,0.0,1.0
6,2,17,2,1,1,6,39,4,3,3,2,1,1.0,0.53,52.93,2936,1.0,1.0
6,2,18,2,1,2,7,31,4,2,2,2,1,1.0,0.65,53.58,1521,1.0,1.0
6,2,19,2,1,3,51,25,2,5,5,2,1,1.0,0.43,54.01,1138,1.0,1.0
6,2,20,2,1,4,31,46,3,5,3,1,1,2.0,0.26,54.27,4418,0.0,2.0
6,2,21,2,2,1,25,36,5,3,3,2,1,2.0,0.84,55.11,2503,0.0,2.0
6,2,22,2,2,2,31,44,4,3,3,2,1,2.0,0.52,55.63,5045,0.0,1.0
6,2,23,2,2,3,51,34,4,2,2,2,1,2.0,1.23,56.86,2162,0.0,1.0
6,2,24,2,2,4,24,52,5,4,4,2,1,2.0,0.01,56.87,17157,0.0,1.0
6,2,25,2,2,5,23,42,4,2,2,2,1,2.0,0.14,57.01,4594,0.0,1.0
6,2,26,2,2,6,48,14,2,5,5,2,1,2.0,1.53,58.54,4483,0.0,1.0
6,2,27,2,1,1,37,29,3,2,3,1,1,2.0,0.7,59.24,3715,0.0,2.0
6,2,28,2,1,2,23,21,3,5,3,1,1,2.0,0.29,59.53,11858,0.0,1.0
6,2,29,2,2,1,49,5,3,4,4,2,1,2.0,0.51,60.04,3437,0.0,2.0
6,2,30,2,2,2,15,50,3,4,4,2,1,2.0,0.35,60.39,1810,0.0,1.0
6,2,31,2,2,3,32,47,4,5,4,1,1,1.0,0.62,61.01,9612,1.0,2.0
6,2,32,2,2,4,19,5,5,3,3,2,1,2.0,0.51,61.52,3347,0.0,2.0
6,2,33,2,2,5,13,36,5,4,4,2,1,2.0,0.89,62.41,3970,0.0,1.0
6,2,34,2,1,1,41,4,4,5,4,1,1,2.0,0.83,63.24,4130,0.0,2.0
6,2,35,2,1,2,53,4,4,3,4,1,1,2.0,0.39,63.63,5412,0.0,1.0
6,2,36,2,1,3,38,14,5,2,2,2,1,1.0,0.49,64.12,4944,1.0,2.0
6,2,37,2,2,1,3,21,2,5,5,2,1,2.0,0.56,64.68,4390,0.0,1.0
6,2,38,2,2,2,16,39,2,5,5,2,1,2.0,0.12,64.8,2771,0.0,1.0
6,2,39,2,2,3,32,7,3,2,3,1,1,1.0,0.47,65.27,5799,1.0,2.0
6,2,40,2,1,1,7,2,2,5,2,1,1,2.0,0.46,65.73,3465,0.0,1.0
6,2,41,2,2,1,20,26,5,3,3,2,1,2.0,0.02,65.75,1682,0.0,2.0
6,2,42,2,2,2,33,54,2,3,3,2,1,2.0,0.94,66.69,1760,0.0,1.0
6,2,43,2,1,1,11,17,2,5,2,1,1,2.0,0.17,66.86,7729,0.0,2.0
6,2,44,2,1,2,54,25,5,4,5,1,1,2.0,1.0,67.86,2146,0.0,1.0
6,2,45,2,1,3,36,5,4,2,4,1,1,2.0,0.18,68.04,2638,0.0,1.0
6,2,46,2,1,4,42,45,3,2,2,2,1,1.0,0.3,68.34,7285,1.0,2.0
6,2,47,2,1,5,37,29,3,5,5,2,1,1.0,0.6,68.94,11828,1.0,1.0
6,2,48,2,2,1,20,37,3,4,3,1,1,1.0,0.67,69.61,9716,1.0,2.0
6,2,49,2,2,2,25,33,5,2,2,2,1,2.0,0.82,70.43,2117,0.0,2.0
6,2,50,2,2,3,36,20,2,4,4,2,1,2.0,0.57,71.0,3460,0.0,1.0
6,2,51,2,1,1,54,47,4,5,4,1,1,2.0,0.09,71.09,1541,0.0,2.0
6,2,52,2,2,1,7,47,2,4,2,1,1,1.0,0.41,71.5,7219,1.0,1.0
6,2,53,2,2,2,37,19,5,2,2,2,1,2.0,1.08,72.58,4179,0.0,2.0
6,2,54,2,2,3,51,33,4,3,4,1,1,1.0,0.64,73.22,4964,1.0,2.0
6,2,55,2,2,4,35,21,2,3,2,1,1,1.0,0.43,73.65,2805,1.0,1.0
6,2,56,2,1,1,7,6,4,2,4,1,1,2.0,0.88,74.53,10499,0.0,1.0
6,2,57,2,1,2,30,52,2,3,3,2,1,1.0,0.53,75.06,1988,1.0,2.0
6,2,58,2,1,3,54,28,2,4,2,1,1,2.0,0.32,75.38,9187,0.0,2.0
6,2,59,2,2,1,50,19,5,4,4,2,1,2.0,0.11,75.49,4357,0.0,2.0
6,2,60,2,1,1,37,44,4,2,2,2,1,1.0,0.53,76.02,9749,1.0,1.0
6,2,61,2,1,2,40,46,5,4,4,2,1,1.0,0.29,76.31,4885,1.0,1.0
6,2,62,2,1,3,23,30,5,2,2,2,1,1.0,0.31,76.62,7412,1.0,1.0
6,2,63,2,1,4,2,38,5,2,5,1,1,2.0,1.45,78.07,2821,0.0,2.0
6,2,64,2,2,1,42,23,2,4,4,2,1,2.0,0.47,78.54,1621,0.0,2.0
6,2,65,2,2,2,25,41,3,2,3,1,1,1.0,0.81,79.35,3510,1.0,2.0
6,2,66,2,1,1,9,8,3,4,4,2,1,1.0,0.47,79.82,2421,1.0,2.0
6,2,67,2,1,2,4,27,5,4,4,2,1,1.0,0.52,80.34,2022,1.0,1.0
6,2,68,2,1,3,21,1,2,3,3,2,1,1.0,0.61,80.95,6885,1.0,1.0
6,2,69,2,1,4,53,38,2,4,2,1,1,2.0,0.42,81.37,2515,0.0,2.0
6,2,70,2,1,5,24,42,3,5,3,1,1,2.0,0.25,81.62,2052,0.0,1.0
6,2,71,2,1,6,17,27,2,4,2,1,1,2.0,1.17,82.79,12113,0.0,1.0
6,2,72,2,2,1,10,41,4,2,2,2,1,2.0,0.09,82.88,4418,0.0,2.0
6,2,73,2,2,2,41,15,2,3,3,2,1,2.0,0.88,83.76,3651,0.0,1.0
6,2,74,2,2,3,27,42,3,2,2,2,1,2.0,0.26,84.02,3669,0.0,1.0
6,2,75,2,2,4,19,31,5,3,3,2,1,2.0,0.85,84.87,1395,0.0,1.0
6,2,76,2,2,5,31,44,5,4,4,2,1,2.0,0.9,85.77,4548,0.0,1.0
6,2,77,2,2,6,13,46,4,5,4,1,1,1.0,0.4,86.17,6042,1.0,2.0
6,2,78,2,1,1,30,3,2,4,2,1,1,2.0,0.75,86.92,1290,0.0,1.0
6,2,79,2,1,2,48,7,3,5,5,2,1,1.0,0.62,87.54,2976,1.0,2.0
6,2,80,2,2,1,15,47,5,3,5,1,1,1.0,0.38,87.92,5651,1.0,2.0
6,2,81,2,2,2,29,49,4,5,4,1,1,1.0,0.54,88.46,2219,1.0,1.0
6,2,82,2,2,3,43,38,3,5,5,2,1,2.0,0.48,88.94,3267,0.0,2.0
6,2,83,2,2,4,41,30,4,5,5,2,1,2.0,0.37,89.31,1683,0.0,1.0
6,2,84,2,2,5,26,13,3,2,3,1,1,1.0,0.48,89.79,7085,1.0,2.0
6,2,1,3,2,1,31,41,3,4,3,1,1,1.0,0.37,90.16,5170,1.0,
6,2,2,3,2,2,16,45,2,5,2,1,1,1.0,0.27,90.43,3981,1.0,1.0
6,2,3,3,2,3,16,19,2,4,2,1,1,1.0,0.39,90.82,3059,1.0,1.0
6,2,4,3,2,4,14,8,5,4,4,2,1,2.0,0.5,91.32,10135,0.0,2.0
6,2,5,3,1,1,21,25,3,2,2,2,1,1.0,0.3,91.62,6858,1.0,1.0
6,2,6,3,1,2,48,33,5,2,2,2,1,1.0,0.65,92.27,1978,1.0,1.0
6,2,7,3,1,3,4,19,4,3,3,2,1,1.0,0.43,92.7,3483,1.0,1.0
6,2,8,3,1,4,2,24,4,2,2,2,1,1.0,0.26,92.96,2624,1.0,1.0
6,2,9,3,1,5,52,27,3,5,5,2,1,1.0,0.51,93.47,6170,1.0,1.0
6,2,10,3,2,1,14,13,2,3,3,2,1,2.0,1.2,94.67,3492,0.0,1.0
6,2,11,3,2,2,35,27,4,2,2,2,1,2.0,0.52,95.19,1088,0.0,1.0
6,2,12,3,2,3,46,44,3,5,3,1,1,1.0,0.52,95.71,6899,1.0,2.0
6,2,13,3,1,1,9,36,4,3,3,2,1,1.0,0.5,96.21,2642,1.0,2.0
6,2,14,3,1,2,12,32,3,2,2,2,1,1.0,0.52,96.73,3220,1.0,1.0
6,2,15,3,2,1,18,22,4,3,3,2,1,2.0,0.92,97.65,2514,0.0,1.0
6,2,16,3,1,1,53,49,3,2,3,1,1,2.0,0.59,98.24,7394,0.0,2.0
6,2,17,3,1,2,25,33,2,5,5,2,1,1.0,0.59,98.83,1871,1.0,2.0
6,2,18,3,1,3,45,30,2,3,2,1,1,2.0,0.74,99.57,1762,0.0,2.0
6,2,19,3,1,4,20,26,2,3,3,2,1,1.0,0.52,100.09,4244,1.0,2.0
6,2,20,3,2,1,8,13,4,2,2,2,1,2.0,0.63,100.72,11491,0.0,1.0
6,2,21,3,2,2,26,47,5,4,5,1,1,1.0,0.38,101.1,2929,1.0,2.0
6,2,22,3,2,3,22,21,5,3,3,2,1,2.0,0.06,101.16,2756,0.0,2.0
6,2,23,3,2,4,13,19,3,5,5,2,1,2.0,0.49,101.65,1877,0.0,1.0
6,2,24,3,2,5,18,21,3,2,2,2,1,2.0,0.67,102.32,2081,0.0,1.0
6,2,25,3,1,1,23,46,5,4,5,1,1,2.0,0.08,102.4,4594,0.0,2.0
6,2,26,3,2,1,31,4,5,2,5,1,1,1.0,0.6,103.0,2145,1.0,1.0
6,2,27,3,2,2,37,26,5,3,5,1,1,1.0,0.51,103.51,4259,1.0,1.0
6,2,28,3,1,1,22,27,5,4,4,2,1,1.0,0.82,104.33,6355,1.0,2.0
6,2,29,3,1,2,54,6,5,3,3,2,1,1.0,0.55,104.88,3173,1.0,1.0
6,2,30,3,1,3,42,35,3,2,2,2,1,1.0,0.35,105.23,6753,1.0,1.0
6,2,31,3,2,1,33,11,2,3,2,1,1,1.0,0.55,105.78,2050,1.0,2.0
6,2,32,3,2,2,52,19,4,3,3,2,1,2.0,0.74,106.52,2851,0.0,2.0
6,2,33,3,2,3,25,28,2,5,5,2,1,2.0,0.26,106.78,2591,0.0,1.0
6,2,34,3,2,4,42,46,5,2,5,1,1,1.0,0.53,107.31,3241,1.0,2.0
6,2,35,3,2,5,7,34,5,2,2,2,1,2.0,0.22,107.53,3173,0.0,2.0
6,2,36,3,2,6,23,16,3,4,3,1,1,1.0,0.5,108.03,2545,1.0,2.0
6,2,37,3,1,1,29,41,4,3,4,1,1,2.0,0.7,108.73,2690,0.0,1.0
6,2,38,3,1,2,23,11,2,5,2,1,1,2.0,1.06,109.79,8674,0.0,1.0
6,2,39,3,1,3,19,29,2,3,3,2,1,1.0,0.59,110.38,2450,1.0,2.0
6,2,40,3,1,4,34,11,4,2,4,1,1,2.0,0.63,111.01,2097,0.0,2.0
6,2,41,3,1,5,24,33,4,3,4,1,1,2.0,0.89,111.9,4418,0.0,1.0
6,2,42,3,1,6,19,29,2,4,4,2,1,1.0,0.5,112.4,1528,1.0,2.0
6,2,43,3,2,1,48,29,4,5,4,1,1,1.0,0.6,113.0,5718,1.0,2.0
6,2,44,3,2,2,30,37,3,4,3,1,1,1.0,0.59,113.59,5011,1.0,1.0
6,2,45,3,1,1,7,9,4,2,2,2,1,1.0,0.65,114.24,5441,1.0,2.0
6,2,46,3,1,2,12,17,3,5,5,2,1,1.0,0.65,114.89,6931,1.0,1.0
6,2,47,3,1,3,17,44,5,3,5,1,1,2.0,0.95,115.84,1937,0.0,2.0
6,2,48,3,1,4,36,6,4,2,4,1,1,2.0,0.03,115.87,3666,0.0,1.0
6,2,49,3,2,1,47,53,2,4,2,1,1,1.0,0.58,116.45,3460,1.0,1.0
6,2,50,3,2,2,1,5,2,4,2,1,1,1.0,0.39,116.84,9092,1.0,1.0
6,2,51,3,2,3,50,33,5,4,5,1,1,1.0,0.43,117.27,2071,1.0,1.0
6,2,52,3,2,4,52,31,4,5,4,1,1,1.0,0.58,117.85,7169,1.0,1.0
6,2,53,3,2,5,1,11,2,4,2,1,1,1.0,0.5,118.35,5539,1.0,1.0
6,2,54,3,2,6,8,37,2,3,2,1,1,1.0,0.63,118.98,2529,1.0,1.0
6,2,55,3,1,1,2,1,2,5,2,1,1,2.0,0.73,119.71,5504,0.0,1.0
6,2,56,3,1,2,7,42,3,2,3,1,1,2.0,0.64,120.35,5172,0.0,1.0
6,2,57,3,1,3,24,43,3,4,3,1,1,2.0,0.43,120.78,2532,0.0,1.0
6,2,58,3,2,1,2,4,4,5,5,2,1,2.0,0.36,121.14,2929,0.0,2.0
6,2,59,3,2,2,46,21,3,4,3,1,1,1.0,0.43,121.57,3315,1.0,2.0
6,2,60,3,2,3,28,50,5,3,5,1,1,1.0,0.39,121.96,6569,1.0,1.0
6,2,61,3,2,4,18,46,2,4,2,1,1,1.0,0.53,122.49,3476,1.0,1.0
6,2,62,3,1,1,37,20,3,5,3,1,1,2.0,0.65,123.14,2594,0.0,1.0
6,2,63,3,1,2,29,20,5,2,5,1,1,2.0,0.75,123.89,2914,0.0,1.0
6,2,64,3,1,3,24,15,3,5,3,1,1,2.0,0.66,124.55,2260,0.0,1.0
6,2,65,3,1,4,1,43,4,5,5,2,1,1.0,0.59,125.14,21346,1.0,2.0
6,2,66,3,1,5,15,43,4,5,5,2,1,1.0,0.42,125.56,1456,1.0,1.0
6,2,67,3,1,6,22,10,5,4,5,1,1,2.0,0.82,126.38,5569,0.0,2.0
6,2,68,3,2,1,13,11,2,5,5,2,1,2.0,0.92,127.3,5267,0.0,2.0
6,2,69,3,2,2,28,2,4,5,4,1,1,1.0,0.25,127.55,5362,1.0,2.0
6,2,70,3,2,3,39,18,5,2,2,2,1,2.0,0.63,128.18,4527,0.0,2.0
6,2,71,3,2,4,47,25,5,3,3,2,1,2.0,0.15,128.33,1874,0.0,1.0
6,2,72,3,2,5,13,43,4,2,2,2,1,2.0,0.14,128.47,3940,0.0,1.0
6,2,73,3,1,1,44,1,2,5,2,1,1,2.0,0.57,129.04,5633,0.0,2.0
6,2,74,3,1,2,17,7,2,4,2,1,1,2.0,0.34,129.38,4092,0.0,1.0
6,2,75,3,1,3,27,16,4,3,4,1,1,2.0,0.96,130.34,2437,0.0,1.0
6,2,76,3,1,4,44,43,4,5,4,1,1,2.0,0.45,130.79,3553,0.0,1.0
6,2,77,3,1,5,23,34,3,5,3,1,1,2.0,0.98,131.77,3729,0.0,1.0
6,2,78,3,2,1,42,36,5,2,5,1,1,1.0,0.44,132.21,11042,1.0,1.0
6,2,79,3,1,1,24,47,5,3,3,2,1,1.0,0.51,132.72,6155,1.0,2.0
6,2,80,3,1,2,16,29,2,3,2,1,1,2.0,0.69,133.41,6466,0.0,2.0
6,2,81,3,2,1,44,35,3,4,3,1,1,1.0,0.63,134.04,2850,1.0,1.0
6,2,82,3,2,2,31,44,3,2,3,1,1,1.0,0.57,134.61,1090,1.0,1.0
6,2,83,3,2,3,11,43,3,4,4,2,1,2.0,0.36,134.97,7440,0.0,2.0
6,2,84,3,1,1,21,6,5,4,5,1,1,2.0,0.18,135.15,4480,0.0,2.0
7,2,1,1,2,1,53,8,5,3,3,2,1,2.0,0.66,0.66,1529,0.0,
7,2,2,1,2,2,17,10,4,5,4,1,1,1.0,0.38,1.04,4502,1.0,2.0
7,2,3,1,2,3,52,16,2,5,2,1,1,1.0,0.53,1.57,3853,1.0,1.0
7,2,4,1,2,4,49,27,2,5,4,0,0,0.0,0.0,1.57,3334,,
7,2,5,1,2,5,12,25,4,2,4,1,1,1.0,0.63,2.2,3557,1.0,
7,2,6,1,2,6,47,36,5,2,5,1,1,1.0,0.53,2.73,1598,1.0,1.0
7,2,7,1,1,1,41,51,2,5,2,1,1,2.0,0.58,3.31,2653,0.0,1.0
7,2,8,1,1,2,41,35,2,4,4,2,1,1.0,0.55,3.86,4591,1.0,2.0
7,2,9,1,1,3,47,7,3,5,3,1,1,2.0,1.07,4.93,2813,0.0,2.0
7,2,10,1,1,4,6,4,5,3,3,2,1,1.0,0.67,5.6,2482,1.0,2.0
7,2,11,1,1,5,5,7,3,5,5,2,1,1.0,0.38,5.98,2978,1.0,1.0
7,2,12,1,1,6,30,28,5,3,3,2,1,1.0,0.52,6.5,4051,1.0,1.0
7,2,13,1,2,1,54,33,5,4,4,2,1,2.0,0.78,7.28,4433,0.0,1.0
7,2,14,1,2,2,15,45,2,3,3,2,1,2.0,0.38,7.66,3472,0.0,1.0
7,2,15,1,1,1,9,43,2,5,2,1,1,2.0,1.68,9.34,5480,0.0,2.0
7,2,16,1,1,2,15,19,3,5,5,2,1,1.0,0.6,9.94,4897,1.0,2.0
7,2,17,1,1,3,54,9,4,2,2,2,1,1.0,0.4,10.34,945,1.0,1.0
7,2,18,1,2,1,29,19,2,3,2,1,1,1.0,0.6,10.94,819,1.0,2.0
7,2,19,1,2,2,25,26,2,3,2,1,1,1.0,0.58,11.52,3426,1.0,1.0
7,2,20,1,2,3,36,46,4,5,5,2,1,2.0,0.86,12.38,2611,0.0,2.0
7,2,21,1,1,1,12,21,4,3,3,2,1,1.0,0.3,12.68,2052,1.0,1.0
7,2,22,1,1,2,19,20,5,4,4,2,1,1.0,0.68,13.36,2546,1.0,1.0
7,2,23,1,1,3,14,5,4,2,4,1,1,2.0,1.02,14.38,1299,0.0,2.0
7,2,24,1,1,4,22,23,2,5,5,2,1,1.0,0.37,14.75,3045,1.0,2.0
7,2,25,1,2,1,5,49,4,3,3,2,1,2.0,0.68,15.43,2447,0.0,1.0
7,2,26,1,2,2,53,27,4,5,4,1,1,1.0,0.61,16.04,1776,1.0,2.0
7,2,27,1,2,3,9,54,3,5,3,1,1,1.0,0.6,16.64,2226,1.0,1.0
7,2,28,1,2,4,1,48,3,2,2,2,1,2.0,0.52,17.16,9249,0.0,2.0
7,2,29,1,1,1,54,50,2,3,3,2,1,1.0,0.39,17.55,4596,1.0,1.0
7,2,30,1,2,1,47,33,5,2,2,2,1,2.0,0.45,18.0,10082,0.0,1.0
7,2,31,1,2,2,54,24,5,4,4,2,1,2.0,0.12,18.12,2227,0.0,1.0
7,2,32,1,2,3,34,42,2,5,2,1,1,1.0,0.3,18.42,2490,1.0,2.0
7,2,33,1,2,4,37,12,3,4,3,1,1,1.0,0.39,18.81,2978,1.0,1.0
7,2,34,1,2,5,18,25,5,4,5,1,1,1.0,0.57,19.38,6179,1.0,1.0
7,2,35,1,1,1,41,21,2,4,4,2,1,1.0,0.57,19.95,5249,1.0,2.0
7,2,36,1,1,2,31,54,5,2,2,2,1,1.0,0.45,20.4,4610,1.0,1.0
7,2,37,1,1,3,2,29,4,3,4,1,1,2.0,0.53,20.93,5776,0.0,2.0
7,2,38,1,1,4,6,45,2,4,4,2,1,1.0,0.55,21.48,6865,1.0,2.0
7,2,39,1,1,5,10,13,5,3,3,2,1,1.0,0.52,22.0,6541,1.0,1.0
7,2,40,1,2,1,10,28,4,5,5,2,1,2.0,0.62,22.62,5777,0.0,1.0
7,2,41,1,1,1,1,4,5,3,5,1,1,2.0,1.48,24.1,5586,0.0,2.0
7,2,42,1,1,2,20,17,3,2,3,1,1,2.0,0.66,24.76,5969,0.0,1.0
7,2,43,1,2,1,6,17,4,2,4,1,1,1.0,0.53,25.29,2760,1.0,1.0
7,2,44,1,1,1,47,26,5,2,5,1,1,2.0,0.81,26.1,4865,0.0,1.0
7,2,45,1,1,2,31,20,5,3,3,2,1,1.0,0.43,26.53,8381,1.0,2.0
7,2,46,1,1,3,48,39,4,5,4,1,1,2.0,0.92,27.45,4523,0.0,2.0
7,2,47,1,1,4,53,33,5,4,4,2,1,1.0,0.52,27.97,3727,1.0,2.0
7,2,48,1,2,1,35,19,5,2,5,1,1,1.0,0.6,28.57,2191,1.0,2.0
7,2,49,1,2,2,20,21,2,5,2,1,1,1.0,0.61,29.18,3665,1.0,1.0
7,2,50,1,2,3,26,7,4,5,4,1,1,1.0,0.66,29.84,4994,1.0,1.0
7,2,51,1,2,4,50,16,3,2,2,2,1,2.0,0.47,30.31,1297,0.0,2.0
7,2,52,1,1,1,6,29,4,3,3,2,1,1.0,0.66,30.97,2862,1.0,1.0
7,2,53,1,1,2,9,45,3,5,3,1,1,2.0,0.61,31.58,3120,0.0,2.0
7,2,54,1,1,3,45,21,5,3,3,2,1,1.0,0.33,31.91,6329,1.0,2.0
7,2,55,1,1,4,49,50,3,4,4,2,1,1.0,0.48,32.39,2735,1.0,1.0
7,2,56,1,1,5,1,49,4,3,3,2,1,1.0,0.44,32.83,1778,1.0,1.0
7,2,57,1,1,6,23,11,3,4,3,1,1,2.0,0.3,33.13,5138,0.0,2.0
7,2,58,1,2,1,49,42,2,4,2,1,1,1.0,0.43,33.56,2627,1.0,1.0
7,2,59,1,2,2,33,46,3,4,3,1,1,1.0,0.58,34.14,4010,1.0,1.0
7,2,60,1,2,3,36,6,3,2,3,1,1,1.0,0.54,34.68,2686,1.0,1.0
7,2,61,1,1,1,19,3,3,2,3,1,1,2.0,0.92,35.6,1347,0.0,1.0
7,2,62,1,1,2,24,13,3,4,2,0,0,0.0,0.0,35.6,530,,
7,2,63,1,1,3,39,36,3,4,5,0,0,0.0,0.0,35.6,1167,,
7,2,64,1,2,1,36,3,4,5,4,1,1,1.0,0.53,36.13,3662,1.0,
7,2,65,1,2,2,27,16,4,2,4,1,1,1.0,0.48,36.61,0,1.0,1.0
7,2,66,1,2,3,28,9,2,3,2,1,1,1.0,0.49,37.1,1536,1.0,1.0
7,2,67,1,2,4,33,16,3,4,3,1,1,1.0,0.53,37.63,1455,1.0,1.0
7,2,68,1,2,5,40,4,2,4,4,2,1,2.0,1.05,38.68,4069,0.0,2.0
7,2,69,1,1,1,26,21,4,3,4,1,1,2.0,0.88,39.56,1075,0.0,2.0
7,2,70,1,2,1,5,16,3,2,3,1,1,1.0,0.34,39.9,2098,1.0,1.0
7,2,71,1,2,2,17,15,5,4,5,1,1,1.0,0.51,40.41,2513,1.0,1.0
7,2,72,1,1,1,5,11,5,4,4,2,1,1.0,0.47,40.88,1649,1.0,2.0
7,2,73,1,1,2,30,34,5,2,5,1,1,2.0,0.77,41.65,915,0.0,2.0
7,2,74,1,2,1,14,47,2,3,3,2,1,2.0,0.36,42.01,2449,0.0,2.0
7,2,75,1,2,2,31,42,2,3,2,1,1,1.0,0.63,42.64,2428,1.0,2.0
7,2,76,1,2,3,52,50,4,3,4,1,1,1.0,0.48,43.12,2899,1.0,1.0
7,2,77,1,2,4,12,40,3,5,2,0,0,0.0,0.0,43.12,1121,,
7,2,78,1,2,5,14,16,2,4,2,1,1,1.0,0.33,43.45,2300,1.0,
7,2,79,1,2,6,9,53,2,4,2,1,1,1.0,0.66,44.11,753,1.0,1.0
7,2,80,1,1,1,8,20,4,2,2,2,1,1.0,0.55,44.66,5345,1.0,2.0
7,2,81,1,1,2,23,11,5,2,2,2,1,1.0,0.57,45.23,704,1.0,1.0
7,2,82,1,1,3,49,12,4,2,2,2,1,1.0,0.42,45.65,691,1.0,1.0
7,2,83,1,1,4,11,25,3,2,2,2,1,1.0,0.6,46.25,5121,1.0,1.0
7,2,84,1,1,5,52,1,3,5,3,1,1,2.0,1.02,47.27,4722,0.0,2.0
7,2,1,2,1,1,18,47,3,4,3,1,1,2.0,0.5,47.77,3780,0.0,
7,2,2,2,1,2,37,30,3,4,4,2,1,1.0,0.31,48.08,5024,1.0,2.0
7,2,3,2,1,3,31,15,4,5,5,2,1,1.0,0.36,48.44,3745,1.0,1.0
7,2,4,2,1,4,1,9,3,2,2,2,1,1.0,0.52,48.96,834,1.0,1.0
7,2,5,2,1,5,53,32,5,4,5,1,1,2.0,0.6,49.56,6110,0.0,2.0
7,2,6,2,1,6,37,32,3,4,4,2,1,1.0,0.38,49.94,5539,1.0,2.0
7,2,7,2,2,1,7,33,2,4,2,1,1,1.0,0.45,50.39,2083,1.0,2.0
7,2,8,2,2,2,15,26,2,4,2,1,1,1.0,0.66,51.05,1650,1.0,1.0
7,2,9,2,2,3,41,46,4,3,4,1,1,1.0,0.45,51.5,3568,1.0,1.0
7,2,10,2,2,4,28,54,3,5,3,1,1,1.0,0.5,52.0,1170,1.0,1.0
7,2,11,2,2,5,14,32,3,5,3,1,1,1.0,0.59,52.59,1715,1.0,1.0
7,2,12,2,2,6,32,12,5,4,5,1,1,1.0,0.61,53.2,1344,1.0,1.0
7,2,13,2,1,1,48,23,4,2,2,2,1,1.0,0.52,53.72,5933,1.0,2.0
7,2,14,2,1,2,48,25,2,3,3,2,1,1.0,0.31,54.03,3265,1.0,1.0
7,2,15,2,2,1,4,30,2,5,2,1,1,1.0,0.31,54.34,2497,1.0,2.0
7,2,16,2,2,2,41,20,5,2,2,2,1,2.0,0.7,55.04,4547,0.0,2.0
7,2,17,2,2,3,44,4,5,3,5,1,1,1.0,0.41,55.45,6529,1.0,2.0
7,2,18,2,2,4,28,7,3,5,5,2,1,2.0,0.77,56.22,7207,0.0,2.0
7,2,19,2,1,1,31,15,3,2,2,2,1,1.0,0.34,56.56,3521,1.0,1.0
7,2,20,2,1,2,24,48,5,2,2,2,1,1.0,0.55,57.11,1539,1.0,1.0
7,2,21,2,1,3,41,51,4,5,5,2,1,1.0,0.57,57.68,5418,1.0,1.0
7,2,22,2,1,4,53,25,2,3,3,2,1,1.0,0.54,58.22,1250,1.0,1.0
7,2,23,2,1,5,48,40,5,2,3,0,0,0.0,0.0,58.22,7840,,
7,2,24,2,2,1,13,4,4,3,4,1,1,1.0,0.38,58.6,8914,1.0,
7,2,25,2,2,2,13,5,2,5,2,1,1,1.0,0.46,59.06,1729,1.0,1.0
7,2,26,2,2,3,27,53,5,4,5,1,1,1.0,0.55,59.61,1393,1.0,1.0
7,2,27,2,2,4,6,46,3,5,3,1,1,1.0,0.31,59.92,2672,1.0,1.0
7,2,28,2,2,5,21,48,5,3,5,1,1,1.0,0.42,60.34,3508,1.0,1.0
7,2,29,2,1,1,44,26,5,3,3,2,1,1.0,0.37,60.71,1696,1.0,2.0
7,2,30,2,2,1,21,24,5,3,5,1,1,1.0,0.62,61.33,1520,1.0,2.0
7,2,31,2,2,2,34,52,3,4,3,1,1,1.0,0.7,62.03,4145,1.0,1.0
7,2,32,2,2,3,27,21,3,5,3,1,1,1.0,0.58,62.61,4740,1.0,1.0
7,2,33,2,1,1,4,34,2,3,2,1,1,2.0,0.15,62.76,1348,0.0,1.0
7,2,34,2,1,2,20,21,5,2,2,2,1,1.0,0.53,63.29,3137,1.0,2.0
7,2,35,2,1,3,33,41,2,4,4,2,1,1.0,0.47,63.76,2785,1.0,1.0
7,2,36,2,1,4,3,4,4,5,5,2,1,1.0,0.4,64.16,2513,1.0,1.0
7,2,37,2,2,1,41,5,3,2,2,2,1,2.0,0.66,64.82,2608,0.0,1.0
7,2,38,2,1,1,30,49,3,4,4,2,1,1.0,0.51,65.33,1490,1.0,1.0
7,2,39,2,1,2,2,42,5,4,5,1,1,2.0,0.18,65.51,9762,0.0,2.0
7,2,40,2,1,3,33,9,4,5,5,2,1,1.0,0.47,65.98,2017,1.0,2.0
7,2,41,2,2,1,12,30,2,3,2,1,1,1.0,0.58,66.56,640,1.0,2.0
7,2,42,2,2,2,12,26,5,2,5,1,1,1.0,0.35,66.91,720,1.0,1.0
7,2,43,2,1,1,19,16,4,3,3,2,1,1.0,0.43,67.34,2593,1.0,2.0
7,2,44,2,2,1,51,46,4,2,4,1,1,1.0,0.44,67.78,3043,1.0,2.0
7,2,45,2,2,2,10,46,4,2,4,1,1,1.0,0.62,68.4,1253,1.0,1.0
7,2,46,2,2,3,22,51,5,4,4,2,1,2.0,1.33,69.73,4626,0.0,2.0
7,2,47,2,1,1,22,50,2,4,4,2,1,1.0,0.67,70.4,3072,1.0,1.0
7,2,48,2,1,2,19,36,4,3,4,1,1,2.0,0.93,71.33,5008,0.0,2.0
7,2,49,2,1,3,52,17,5,3,5,1,1,2.0,0.65,71.98,2161,0.0,1.0
7,2,50,2,1,4,10,9,2,4,2,1,1,2.0,0.53,72.51,847,0.0,1.0
7,2,51,2,1,5,8,25,2,3,3,2,1,1.0,0.32,72.83,2162,1.0,2.0
7,2,52,2,1,6,42,21,4,5,5,2,1,1.0,0.45,73.28,2817,1.0,1.0
7,2,53,2,2,1,3,36,2,5,2,1,1,1.0,0.5,73.78,3058,1.0,2.0
7,2,54,2,2,2,11,48,2,3,2,1,1,1.0,0.53,74.31,817,1.0,1.0
7,2,55,2,2,3,39,27,3,5,5,2,1,2.0,0.02,74.33,899,0.0,2.0
7,2,56,2,2,4,16,12,5,4,2,0,0,0.0,0.0,74.33,2941,,
7,2,57,2,2,5,20,49,3,5,3,1,1,1.0,0.42,74.75,2397,1.0,
7,2,58,2,1,1,33,27,3,4,4,2,1,1.0,0.57,75.32,2515,1.0,2.0
7,2,59,2,1,2,52,36,5,3,3,2,1,1.0,0.36,75.68,2847,1.0,1.0
7,2,60,2,1,3,50,15,3,2,3,1,1,2.0,0.13,75.81,1939,0.0,2.0
7,2,61,2,2,1,36,13,2,5,2,1,1,1.0,0.53,76.34,3577,1.0,1.0
7,2,62,2,1,1,26,7,5,2,5,1,1,2.0,1.22,77.56,4611,0.0,1.0
7,2,63,2,1,2,31,32,2,5,5,2,1,1.0,0.38,77.94,1809,1.0,2.0
7,2,64,2,1,3,5,31,3,2,2,2,1,1.0,0.57,78.51,1604,1.0,1.0
7,2,65,2,1,4,49,35,4,2,2,2,1,1.0,0.41,78.92,2783,1.0,1.0
7,2,66,2,1,5,37,6,4,3,3,2,1,1.0,0.46,79.38,4081,1.0,1.0
7,2,67,2,2,1,8,39,2,5,2,1,1,1.0,0.43,79.81,3664,1.0,2.0
7,2,68,2,2,2,13,53,2,4,4,2,1,2.0,1.09,80.9,2001,0.0,2.0
7,2,69,2,1,1,35,12,4,5,5,2,1,1.0,0.6,81.5,1506,1.0,1.0
7,2,70,2,1,2,52,49,4,3,4,1,1,2.0,0.33,81.83,1795,0.0,2.0
7,2,71,2,2,1,7,42,4,2,4,1,1,1.0,0.57,82.4,3603,1.0,1.0
7,2,72,2,2,2,16,45,5,3,5,1,1,1.0,0.32,82.72,1840,1.0,1.0
7,2,73,2,2,3,2,44,3,2,5,0,0,0.0,0.0,82.72,1,,
7,2,74,2,2,4,2,14,3,4,4,2,1,2.0,0.4,83.12,4665,0.0,
7,2,75,2,2,5,31,7,3,2,2,2,1,2.0,0.3,83.42,2405,0.0,1.0
7,2,76,2,2,6,6,39,2,3,3,2,1,2.0,0.73,84.15,3616,0.0,1.0
7,2,77,2,1,1,53,7,4,2,2,2,1,1.0,0.4,84.55,2385,1.0,1.0
7,2,78,2,1,2,46,50,2,5,5,2,1,1.0,0.51,85.06,1010,1.0,1.0
7,2,79,2,1,3,15,46,2,4,2,1,1,2.0,0.25,85.31,979,0.0,2.0
7,2,80,2,1,4,54,36,5,2,2,2,1,1.0,0.33,85.64,2146,1.0,2.0
7,2,81,2,2,1,27,36,5,4,4,2,1,2.0,0.32,85.96,5920,0.0,1.0
7,2,82,2,2,2,30,48,4,3,4,1,1,1.0,0.45,86.41,860,1.0,2.0
7,2,83,2,2,3,53,15,4,5,4,1,1,1.0,0.47,86.88,82,1.0,1.0
7,2,84,2,2,4,2,15,4,2,2,2,1,2.0,0.36,87.24,3674,0.0,2.0
7,2,1,3,1,1,7,27,3,4,3,1,1,2.0,1.02,88.26,3444,0.0,
7,2,2,3,1,2,35,30,2,5,5,2,1,1.0,0.66,88.92,1662,1.0,2.0
7,2,3,3,1,3,22,48,3,2,2,2,1,1.0,0.49,89.41,2721,1.0,1.0
7,2,4,3,1,4,14,39,4,3,4,1,1,2.0,0.15,89.56,5159,0.0,2.0
7,2,5,3,1,5,37,21,3,5,3,1,1,2.0,0.6,90.16,2769,0.0,1.0
7,2,6,3,1,6,31,28,5,3,5,1,1,2.0,0.31,90.47,3968,0.0,1.0
