SubNo,Group(1=OptHighReward;2=OptLowReward),Block_trial,Block,VarDist_cond,Run_number,Targ1_position,Targ2_position,Red_targ_digit,Blue_targ_digit,Response,Targ_Choice,Acc,OutcomeCond(0=inaccurate;1=lowReward;2=highReward),OutcomeValue,Points,RT,Optimal_Choice,Repeat_Switch
1,1,1,1,2,1,3,10,4,2,4,1,1,2.0,0.74,0.74,1.929,1,
1,1,2,1,2,2,22,27,5,2,2,2,1,1.0,0.49,1.23,4.313,0,2.0
1,1,4,1,2,4,12,13,3,2,2,2,1,1.0,0.25,1.85,0.947,0,1.0
1,1,5,1,2,5,52,48,2,3,3,2,1,1.0,0.32,2.17,2.426,0,1.0
1,1,6,1,2,6,29,45,4,5,4,1,1,2.0,0.38,2.55,3.438,1,2.0
1,1,7,1,1,1,43,27,4,2,2,2,1,2.0,0.72,3.27,2.586,1,2.0
1,1,8,1,2,1,9,52,3,2,3,1,1,2.0,0.68,3.95,3.088,1,2.0
1,1,10,1,2,3,13,12,2,3,3,2,1,1.0,0.26,4.21,0.942,0,
1,1,11,1,2,4,40,3,3,4,4,2,1,1.0,0.26,4.47,3.661,0,1.0
1,1,12,1,1,1,29,19,2,5,2,1,1,1.0,0.21,4.68,0.904,0,2.0
1,1,13,1,1,2,10,27,2,5,2,1,1,1.0,0.33,5.01,4.802,0,1.0
1,1,14,1,1,3,37,2,2,5,2,1,1,1.0,0.38,5.39,1.551,0,1.0
1,1,16,1,1,5,39,1,5,3,3,2,1,2.0,0.61,6.29,0.929,1,2.0
1,1,17,1,2,1,13,7,4,5,4,1,1,2.0,0.66,6.95,1.953,1,2.0
1,1,18,1,2,2,32,28,2,4,2,1,1,2.0,0.65,7.6,1.36,1,1.0
1,1,19,1,2,3,9,24,4,3,4,1,1,2.0,0.55,8.15,3.936,1,1.0
1,1,20,1,2,4,25,17,5,3,5,1,1,2.0,0.82,8.97,3.216,1,1.0
1,1,21,1,2,5,23,4,3,4,3,1,1,2.0,0.72,9.69,2.717,1,1.0
1,1,22,1,1,1,40,39,4,2,2,2,1,2.0,0.82,10.51,1.477,1,2.0
1,1,23,1,1,2,19,15,3,2,2,2,1,2.0,0.61,11.12,1.6,1,1.0
1,1,24,1,1,3,47,34,2,4,4,2,1,2.0,0.54,11.66,1.845,1,1.0
1,1,25,1,1,4,31,42,3,2,2,2,1,2.0,0.76,12.42,2.321,1,1.0
1,1,26,1,1,5,30,9,4,2,2,2,1,2.0,0.67,13.09,1.002,1,1.0
1,1,27,1,1,6,38,54,4,5,5,2,1,2.0,0.58,13.67,3.135,1,1.0
1,1,28,1,2,1,17,43,2,4,2,1,1,2.0,0.66,14.33,1.295,1,2.0
1,1,29,1,1,1,52,14,5,4,4,2,1,2.0,0.43,14.76,1.249,1,2.0
1,1,30,1,1,2,25,1,4,3,4,1,1,1.0,0.46,15.22,2.7,0,2.0
1,1,31,1,1,3,23,37,4,2,2,2,1,2.0,0.55,15.77,2.789,1,2.0
1,1,32,1,1,4,8,30,3,5,5,2,1,2.0,0.59,16.36,3.652,1,1.0
1,1,33,1,2,1,50,37,5,3,5,1,1,2.0,0.82,17.18,1.887,1,2.0
1,1,34,1,2,2,42,48,4,2,4,1,1,2.0,0.56,17.74,1.961,1,1.0
1,1,35,1,2,3,28,37,3,4,3,1,1,2.0,0.62,18.36,2.984,1,1.0
1,1,36,1,1,1,35,28,4,3,4,1,1,1.0,0.27,18.63,2.623,0,1.0
1,1,37,1,1,2,49,53,5,2,2,2,1,2.0,0.86,19.49,1.691,1,2.0
1,1,38,1,1,3,13,5,3,4,3,1,1,1.0,0.34,19.83,1.077,0,2.0
1,1,39,1,2,1,52,18,4,3,4,1,1,2.0,0.54,20.37,3.103,1,1.0
1,1,40,1,2,2,14,12,2,5,2,1,1,2.0,0.53,20.9,1.393,1,1.0
1,1,41,1,1,1,38,30,3,4,4,2,1,2.0,0.87,21.77,1.599,1,2.0
1,1,42,1,1,2,53,51,4,5,5,2,1,2.0,0.9,22.67,1.668,1,1.0
1,1,43,1,2,1,50,15,3,5,3,1,1,2.0,0.86,23.53,1.847,1,2.0
1,1,44,1,1,1,42,1,5,2,2,2,1,2.0,0.52,24.05,1.914,1,2.0
1,1,45,1,1,2,5,28,5,2,2,2,1,2.0,0.64,24.69,2.059,1,1.0
1,1,46,1,1,3,18,3,4,5,5,2,1,2.0,0.64,25.33,3.582,1,1.0
1,1,47,1,2,1,14,53,2,4,2,1,1,2.0,0.7,26.03,0.98,1,2.0
1,1,48,1,2,2,49,28,4,5,5,2,1,1.0,0.27,26.3,1.778,0,2.0
1,1,49,1,2,3,42,40,4,2,4,1,1,2.0,0.55,26.85,3.745,1,2.0
1,1,50,1,2,4,5,9,2,3,2,1,1,2.0,0.61,27.46,0.825,1,1.0
1,1,51,1,2,5,45,4,5,4,5,1,1,2.0,0.79,28.25,4.47,1,1.0
1,1,52,1,1,1,23,3,2,3,2,1,1,1.0,0.61,28.86,4.376,0,1.0
1,1,53,1,1,2,25,2,2,5,2,1,1,1.0,0.36,29.22,2.319,0,1.0
1,1,54,1,1,3,42,19,3,5,5,2,1,2.0,0.64,29.86,2.303,1,2.0
1,1,55,1,1,4,41,36,3,2,2,2,1,2.0,0.75,30.61,2.145,1,1.0
1,1,56,1,1,5,53,42,2,3,3,2,1,2.0,0.61,31.22,3.177,1,1.0
1,1,58,1,2,2,6,54,3,5,3,1,1,2.0,0.89,32.11,2.906,1,
1,1,59,1,2,3,39,15,2,3,2,1,1,2.0,0.8,32.91,1.587,1,1.0
1,1,60,1,1,1,11,38,2,5,5,2,1,2.0,0.52,33.43,2.105,1,2.0
1,1,61,1,1,2,50,24,2,3,3,2,1,2.0,0.59,34.02,1.979,1,1.0
1,1,62,1,2,1,45,52,5,3,5,1,1,2.0,0.82,34.84,2.769,1,2.0
1,1,63,1,2,2,3,23,3,2,3,1,1,2.0,0.71,35.55,2.112,1,1.0
1,1,64,1,2,3,23,38,5,3,5,1,1,2.0,0.71,36.26,1.225,1,1.0
1,1,65,1,2,4,19,18,4,3,4,1,1,2.0,0.47,36.73,2.263,1,1.0
1,1,66,1,2,5,54,46,3,2,3,1,1,2.0,0.69,37.42,1.945,1,1.0
1,1,67,1,2,6,38,45,5,2,5,1,1,2.0,0.75,38.17,1.434,1,1.0
1,1,68,1,1,1,15,5,4,5,5,2,1,2.0,0.59,38.76,2.645,1,2.0
1,1,69,1,1,2,17,41,5,3,3,2,1,2.0,0.55,39.31,2.353,1,1.0
1,1,70,1,1,3,27,10,2,4,4,2,1,2.0,0.65,39.96,1.504,1,1.0
1,1,71,1,1,4,14,46,4,3,3,2,1,2.0,0.54,40.5,1.265,1,1.0
1,1,72,1,2,1,51,26,4,3,4,1,1,2.0,0.66,41.16,3.981,1,2.0
1,1,73,1,2,2,36,45,2,4,2,1,1,2.0,0.7,41.86,1.954,1,1.0
1,1,74,1,2,3,1,54,3,4,3,1,1,2.0,0.83,42.69,1.233,1,1.0
1,1,75,1,2,4,27,37,3,5,3,1,1,2.0,0.69,43.38,1.078,1,1.0
1,1,76,1,1,1,7,40,3,5,5,2,1,2.0,0.6,43.98,2.168,1,2.0
1,1,77,1,2,1,37,27,5,4,5,1,1,2.0,0.86,44.84,2.087,1,2.0
1,1,78,1,2,2,25,40,5,4,5,1,1,2.0,0.76,45.6,1.583,1,1.0
1,1,79,1,1,1,17,26,2,4,4,2,1,2.0,0.69,46.29,2.149,1,2.0
1,1,80,1,1,2,19,49,5,4,4,2,1,2.0,0.75,47.04,5.012,1,1.0
1,1,81,1,1,3,4,37,5,2,2,2,1,2.0,0.61,47.65,1.505,1,1.0
1,1,82,1,1,4,30,34,3,5,5,2,1,2.0,0.77,48.42,2.362,1,1.0
1,1,83,1,1,5,45,12,5,4,4,2,1,2.0,0.7,49.12,1.425,1,1.0
1,1,84,1,1,6,38,12,2,5,5,2,1,2.0,0.74,49.86,0.837,1,1.0
1,1,1,2,1,1,17,44,4,5,5,2,1,2.0,0.54,50.4,2.926,1,
1,1,2,2,1,2,25,5,5,2,2,2,1,2.0,0.85,51.25,1.934,1,1.0
1,1,3,2,2,1,47,7,3,5,3,1,1,2.0,0.72,51.97,3.302,1,2.0
1,1,4,2,2,2,53,52,3,4,3,1,1,2.0,0.44,52.41,1.719,1,1.0
1,1,5,2,2,3,38,44,5,2,5,1,1,2.0,0.72,53.13,1.92,1,1.0
1,1,6,2,1,1,43,10,2,3,2,1,1,1.0,0.48,53.61,1.185,0,1.0
1,1,7,2,1,2,21,19,5,4,4,2,1,2.0,0.74,54.35,2.99,1,2.0
1,1,8,2,1,3,21,27,5,4,4,2,1,2.0,0.83,55.18,1.261,1,1.0
1,1,9,2,1,4,34,36,2,3,3,2,1,2.0,0.82,56.0,1.84,1,1.0
1,1,11,2,2,2,47,48,5,3,5,1,1,2.0,0.56,56.56,2.9,1,
1,1,12,2,1,1,34,36,5,4,4,2,1,2.0,0.4,56.96,2.797,1,2.0
1,1,13,2,1,2,36,2,5,4,4,2,1,2.0,0.88,57.84,3.322,1,1.0
1,1,14,2,1,3,19,23,4,3,3,2,1,2.0,0.71,58.55,2.483,1,1.0
1,1,15,2,1,4,11,15,3,2,2,2,1,2.0,0.67,59.22,1.629,1,1.0
1,1,16,2,1,5,52,46,5,2,2,2,1,2.0,0.62,59.84,3.49,1,1.0
1,1,17,2,1,6,27,21,4,3,3,2,1,2.0,0.49,60.33,3.516,1,1.0
1,1,18,2,2,1,11,28,4,2,4,1,1,2.0,0.69,61.02,1.62,1,2.0
1,1,19,2,2,2,7,52,2,3,2,1,1,2.0,0.51,61.53,2.913,1,1.0
1,1,20,2,2,3,11,50,4,5,4,1,1,2.0,0.57,62.1,1.218,1,1.0
1,1,21,2,2,4,15,21,2,4,2,1,1,2.0,0.64,62.74,0.903,1,1.0
1,1,22,2,2,5,44,4,5,3,5,1,1,2.0,0.76,63.5,2.696,1,1.0
1,1,23,2,1,1,41,13,5,3,3,2,1,2.0,0.71,64.21,1.658,1,2.0
1,1,24,2,1,2,46,36,3,4,4,2,1,2.0,0.51,64.72,2.58,1,1.0
1,1,25,2,1,3,47,28,5,3,3,2,1,2.0,0.84,65.56,1.346,1,1.0
1,1,26,2,1,4,33,23,3,4,4,2,1,2.0,0.67,66.23,2.905,1,1.0
1,1,27,2,1,5,31,43,3,5,5,2,1,2.0,0.89,67.12,1.483,1,1.0
1,1,28,2,2,1,21,38,2,4,2,1,1,2.0,0.52,67.64,1.869,1,2.0
1,1,29,2,1,1,40,10,2,3,3,2,1,2.0,0.57,68.21,1.032,1,2.0
1,1,30,2,1,2,21,35,5,4,4,2,1,2.0,0.58,68.79,3.588,1,1.0
1,1,31,2,1,3,20,49,4,3,4,1,1,1.0,0.32,69.11,3.842,0,2.0
1,1,33,2,2,2,31,45,2,3,2,1,1,2.0,0.55,70.21,3.205,1,1.0
1,1,34,2,2,3,48,3,4,5,4,1,1,2.0,0.39,70.6,1.394,1,1.0
1,1,35,2,2,4,17,33,3,5,3,1,1,2.0,0.57,71.17,1.656,1,1.0
1,1,36,2,2,5,40,32,3,2,3,1,1,2.0,0.7,71.87,2.316,1,1.0
1,1,37,2,2,6,51,43,3,2,3,1,1,2.0,0.65,72.52,2.18,1,1.0
1,1,38,2,1,1,43,49,3,4,4,2,1,2.0,0.65,73.17,4.85,1,2.0
1,1,39,2,2,1,2,47,5,3,5,1,1,2.0,0.65,73.82,4.182,1,2.0
1,1,40,2,2,2,32,19,2,4,2,1,1,2.0,0.69,74.51,1.076,1,1.0
1,1,41,2,2,3,14,37,5,3,5,1,1,2.0,0.61,75.12,1.094,1,1.0
1,1,43,2,1,1,44,47,4,3,4,1,1,1.0,0.25,75.37,2.816,0,
1,1,44,2,1,2,54,49,3,2,3,1,1,1.0,0.39,75.76,2.02,0,1.0
1,1,45,2,1,3,42,20,2,4,4,2,1,2.0,0.62,76.38,3.185,1,2.0
1,1,46,2,2,1,10,34,4,2,4,1,1,2.0,0.69,77.07,1.231,1,2.0
1,1,47,2,2,2,21,51,5,4,5,1,1,2.0,0.55,77.62,2.419,1,1.0
1,1,48,2,2,3,30,41,5,4,5,1,1,2.0,0.65,78.27,1.007,1,1.0
1,1,49,2,2,4,45,37,2,5,2,1,1,2.0,0.75,79.02,3.005,1,1.0
1,1,50,2,2,5,34,4,3,2,3,1,1,2.0,0.56,79.58,1.602,1,1.0
1,1,51,2,1,1,36,23,4,3,3,2,1,2.0,0.68,80.26,2.544,1,2.0
1,1,52,2,1,2,54,6,3,2,2,2,1,2.0,0.64,80.9,2.311,1,1.0
1,1,53,2,1,3,9,47,2,5,5,2,1,2.0,0.66,81.56,3.072,1,1.0
1,1,54,2,1,4,28,23,2,4,4,2,1,2.0,0.62,82.18,2.251,1,1.0
1,1,55,2,1,5,36,37,2,5,5,2,1,2.0,0.42,82.6,1.926,1,1.0
1,1,56,2,2,1,26,33,5,2,5,1,1,2.0,0.65,83.25,1.143,1,2.0
1,1,57,2,2,2,50,22,2,3,2,1,1,2.0,0.83,84.08,3.463,1,1.0
1,1,58,2,2,3,39,29,2,5,2,1,1,2.0,0.74,84.82,2.225,1,1.0
1,1,59,2,2,4,52,12,4,2,4,1,1,2.0,0.62,85.44,1.414,1,1.0
1,1,60,2,2,5,26,17,3,5,3,1,1,2.0,0.59,86.03,2.411,1,1.0
1,1,61,2,2,6,4,27,2,5,2,1,1,2.0,0.7,86.73,1.263,1,1.0
1,1,62,2,1,1,46,8,4,5,5,2,1,2.0,0.62,87.35,2.33,1,2.0
1,1,63,2,1,2,14,22,4,3,3,2,1,2.0,0.6,87.95,3.306,1,1.0
1,1,64,2,1,3,33,17,5,2,2,2,1,2.0,0.67,88.62,1.763,1,1.0
1,1,65,2,1,4,39,24,4,2,2,2,1,2.0,0.81,89.43,2.482,1,1.0
1,1,66,2,1,5,1,20,2,4,4,2,1,2.0,0.37,89.8,2.348,1,1.0
1,1,67,2,1,6,29,17,3,5,5,2,1,2.0,0.74,90.54,2.012,1,1.0
1,1,68,2,2,1,21,47,2,5,2,1,1,2.0,0.55,91.09,2.889,1,2.0
1,1,69,2,1,1,30,23,4,2,2,2,1,2.0,0.78,91.87,1.475,1,2.0
1,1,70,2,2,1,7,15,3,5,3,1,1,2.0,0.38,92.25,3.214,1,2.0
1,1,71,2,2,2,28,21,4,2,4,1,1,2.0,0.64,92.89,1.65,1,1.0
1,1,72,2,2,3,45,13,2,4,2,1,1,2.0,0.67,93.56,3.141,1,1.0
1,1,73,2,2,4,27,16,4,2,4,1,1,2.0,0.62,94.18,1.469,1,1.0
1,1,74,2,1,1,25,34,5,2,2,2,1,2.0,0.64,94.82,1.68,1,2.0
1,1,75,2,1,2,11,30,4,3,3,2,1,2.0,0.49,95.31,1.026,1,1.0
1,1,76,2,2,1,25,32,3,5,3,1,1,2.0,0.53,95.84,1.591,1,2.0
1,1,77,2,2,2,30,28,2,3,2,1,1,2.0,0.57,96.41,1.629,1,1.0
1,1,78,2,1,1,7,5,5,2,2,2,1,2.0,0.71,97.12,1.946,1,2.0
1,1,79,2,1,2,36,17,4,5,5,2,1,2.0,0.6,97.72,1.842,1,1.0
1,1,80,2,1,3,27,11,5,3,3,2,1,2.0,0.85,98.57,1.013,1,1.0
1,1,81,2,1,4,53,34,3,4,4,2,1,2.0,0.68,99.25,1.866,1,1.0
1,1,82,2,2,1,45,30,4,5,4,1,1,2.0,0.45,99.7,3.284,1,2.0
1,1,83,2,2,2,26,50,2,5,2,1,1,2.0,0.61,100.31,3.023,1,1.0
1,1,84,2,2,3,19,20,4,5,4,1,1,2.0,0.59,100.9,1.947,1,1.0
1,1,1,3,2,1,28,5,4,2,2,2,1,1.0,0.35,101.25,1.603,0,
1,1,2,3,2,2,3,52,5,4,5,1,1,2.0,0.64,101.89,2.625,1,2.0
1,1,3,3,2,3,29,19,2,5,2,1,1,2.0,0.63,102.52,2.653,1,1.0
1,1,4,3,2,4,51,7,2,4,2,1,1,2.0,0.58,103.1,1.329,1,1.0
1,1,5,3,2,5,37,42,5,2,5,1,1,2.0,0.66,103.76,2.633,1,1.0
1,1,7,3,1,2,38,30,3,5,5,2,1,2.0,0.5,104.26,2.574,1,
1,1,8,3,2,1,1,29,3,5,3,1,1,2.0,0.74,105.0,5.005,1,2.0
1,1,9,3,1,1,26,53,3,4,4,2,1,2.0,0.51,105.51,3.082,1,2.0
1,1,10,3,1,2,15,54,4,5,5,2,1,2.0,0.59,106.1,1.5,1,1.0
1,1,11,3,1,3,3,51,3,5,5,2,1,2.0,0.65,106.75,1.261,1,1.0
1,1,12,3,2,1,49,25,3,5,3,1,1,2.0,0.7,107.45,1.897,1,2.0
1,1,13,3,2,2,44,15,3,2,3,1,1,2.0,0.66,108.11,3.162,1,1.0
1,1,14,3,2,3,26,15,4,5,4,1,1,2.0,0.87,108.98,1.329,1,1.0
1,1,15,3,2,4,9,50,4,3,4,1,1,2.0,0.86,109.84,1.074,1,1.0
1,1,16,3,2,5,49,41,5,3,5,1,1,2.0,0.74,110.58,3.781,1,1.0
1,1,17,3,2,6,48,50,5,3,5,1,1,2.0,0.68,111.26,1.538,1,1.0
1,1,18,3,1,1,18,44,3,4,4,2,1,2.0,0.57,111.83,3.346,1,2.0
1,1,19,3,1,2,48,1,2,3,3,2,1,2.0,0.61,112.44,1.626,1,1.0
1,1,20,3,1,3,9,48,3,2,3,1,1,1.0,0.17,112.61,1.407,0,2.0
1,1,21,3,1,4,26,12,4,5,5,2,1,2.0,0.62,113.23,2.692,1,2.0
1,1,22,3,1,5,33,32,3,4,4,2,1,2.0,0.61,113.84,1.118,1,1.0
1,1,23,3,2,1,15,51,2,4,2,1,1,2.0,0.87,114.71,1.662,1,2.0
1,1,24,3,2,2,33,51,3,4,3,1,1,2.0,0.76,115.47,1.978,1,1.0
1,1,25,3,2,3,23,16,4,3,4,1,1,2.0,0.67,116.14,1.936,1,1.0
1,1,26,3,2,4,27,29,4,2,4,1,1,2.0,0.63,116.77,0.936,1,1.0
1,1,28,3,1,2,28,53,5,2,2,2,1,2.0,0.68,117.45,1.747,1,
1,1,29,3,1,3,46,24,4,3,3,2,1,2.0,0.76,118.21,2.907,1,1.0
1,1,30,3,1,4,18,25,2,5,5,2,1,2.0,0.93,119.14,1.052,1,1.0
1,1,31,3,1,5,1,7,3,2,2,2,1,2.0,0.71,119.85,2.655,1,1.0
1,1,32,3,1,6,49,36,5,3,3,2,1,2.0,0.77,120.62,2.659,1,1.0
1,1,33,3,2,1,51,41,5,4,5,1,1,2.0,0.75,121.37,3.486,1,2.0
1,1,34,3,2,2,7,31,3,2,3,1,1,2.0,0.73,122.1,3.527,1,1.0
1,1,35,3,1,1,24,25,3,5,5,2,1,2.0,0.79,122.89,4.905,1,2.0
1,1,36,3,2,1,23,21,5,3,5,1,1,2.0,0.82,123.71,3.762,1,2.0
1,1,37,3,2,2,52,7,5,2,5,1,1,2.0,0.67,124.38,1.409,1,1.0
1,1,38,3,2,3,7,52,5,2,5,1,1,2.0,0.63,125.01,1.518,1,1.0
1,1,39,3,1,1,19,48,4,2,2,2,1,2.0,0.69,125.7,1.335,1,2.0
1,1,40,3,1,2,5,18,5,2,2,2,1,2.0,0.78,126.48,2.647,1,1.0
1,1,41,3,1,3,27,24,4,5,5,2,1,2.0,0.81,127.29,2.714,1,1.0
1,1,42,3,1,4,47,33,5,3,3,2,1,2.0,0.6,127.89,1.659,1,1.0
1,1,43,3,2,1,32,13,2,3,2,1,1,2.0,0.77,128.66,1.078,1,2.0
1,1,44,3,2,2,33,22,3,2,3,1,1,2.0,0.65,129.31,1.593,1,1.0
1,1,45,3,2,3,12,45,4,2,4,1,1,2.0,0.63,129.94,2.375,1,1.0
1,1,46,3,2,4,18,34,3,5,3,1,1,2.0,0.73,130.67,1.702,1,1.0
1,1,47,3,2,5,23,29,4,5,4,1,1,2.0,0.78,131.45,2.623,1,1.0
1,1,48,3,1,1,23,20,2,5,5,2,1,2.0,0.6,132.05,3.019,1,2.0
1,1,49,3,1,2,26,40,3,5,5,2,1,2.0,0.49,132.54,3.312,1,1.0
1,1,50,3,2,1,28,46,5,3,5,1,1,2.0,0.66,133.2,1.026,1,2.0
1,1,51,3,1,1,44,10,5,4,5,1,1,1.0,0.4,133.6,0.902,0,1.0
1,1,52,3,1,2,43,4,3,4,4,2,1,2.0,0.68,134.28,2.551,1,2.0
1,1,53,3,1,3,52,49,2,4,4,2,1,2.0,0.85,135.13,0.934,1,1.0
1,1,54,3,1,4,49,4,4,2,2,2,1,2.0,0.63,135.76,2.822,1,1.0
1,1,55,3,2,1,1,12,3,2,2,2,1,1.0,0.43,136.19,1.187,0,1.0
1,1,56,3,2,2,40,8,2,5,2,1,1,2.0,0.57,136.76,2.329,1,2.0
1,1,57,3,2,3,31,10,5,4,5,1,1,2.0,0.52,137.28,2.754,1,1.0
1,1,58,3,2,4,49,37,4,3,4,1,1,2.0,0.75,138.03,1.129,1,1.0
1,1,59,3,1,1,8,52,4,5,5,2,1,2.0,0.5,138.53,1.433,1,2.0
1,1,60,3,2,1,45,46,4,3,4,1,1,2.0,0.51,139.04,2.989,1,2.0
1,1,61,3,2,2,20,5,5,4,5,1,1,2.0,0.6,139.64,1.522,1,1.0
1,1,62,3,2,3,18,23,2,4,2,1,1,2.0,0.49,140.13,2.395,1,1.0
1,1,63,3,1,1,30,27,4,5,5,2,1,2.0,0.73,140.86,1.057,1,2.0
1,1,64,3,1,2,43,39,4,2,2,2,1,2.0,0.63,141.49,2.468,1,1.0
1,1,65,3,1,3,1,24,2,4,4,2,1,2.0,0.51,142.0,1.143,1,1.0
1,1,66,3,2,1,14,22,3,4,4,2,1,1.0,0.23,142.23,2.567,0,1.0
1,1,67,3,2,2,1,3,2,3,2,1,1,2.0,0.55,142.78,2.27,1,2.0
1,1,68,3,1,1,6,50,2,5,5,2,1,2.0,0.66,143.44,1.296,1,2.0
1,1,69,3,1,2,45,37,4,2,2,2,1,2.0,0.38,143.82,2.058,1,1.0
1,1,70,3,1,3,31,30,3,2,2,2,1,2.0,0.59,144.41,2.853,1,1.0
1,1,71,3,1,4,20,16,4,3,3,2,1,2.0,0.5,144.91,1.96,1,1.0
1,1,72,3,1,5,43,9,5,4,4,2,1,2.0,0.71,145.62,1.127,1,1.0
1,1,73,3,2,1,20,18,5,2,5,1,1,2.0,0.74,146.36,2.128,1,2.0
1,1,75,3,2,3,33,51,2,4,2,1,1,2.0,0.68,147.04,2.065,1,
1,1,76,3,2,4,7,6,2,4,2,1,1,2.0,0.66,147.7,0.916,1,1.0
1,1,77,3,2,5,54,45,3,4,3,1,1,2.0,0.36,148.06,2.541,1,1.0
1,1,78,3,2,6,2,40,2,5,2,1,1,2.0,0.67,148.73,0.589,1,1.0
1,1,79,3,1,1,32,52,2,3,2,1,1,1.0,0.23,148.96,1.299,0,1.0
1,1,80,3,1,2,22,12,4,3,3,2,1,2.0,0.64,149.6,0.716,1,2.0
1,1,81,3,1,3,40,53,5,4,4,2,1,2.0,0.63,150.23,3.668,1,1.0
1,1,82,3,1,4,3,39,2,3,3,2,1,2.0,0.53,150.76,1.527,1,1.0
1,1,83,3,1,5,8,39,5,2,2,2,1,2.0,0.74,151.5,1.623,1,1.0
1,1,84,3,1,6,10,38,2,5,5,2,1,2.0,0.7,152.2,3.476,1,1.0
1,1,1,4,2,1,3,36,5,3,5,1,1,2.0,0.63,152.83,1.405,1,
1,1,2,4,2,2,48,17,4,3,4,1,1,2.0,0.77,153.6,2.842,1,1.0
1,1,3,4,2,3,20,14,4,2,4,1,1,2.0,0.85,154.45,1.766,1,1.0
1,1,4,4,2,4,21,25,4,2,4,1,1,2.0,0.54,154.99,2.813,1,1.0
1,1,5,4,2,5,29,30,2,4,2,1,1,2.0,0.66,155.65,2.786,1,1.0
1,1,6,4,2,6,14,20,4,3,4,1,1,2.0,0.54,156.19,2.016,1,1.0
1,1,7,4,1,1,47,42,2,3,3,2,1,2.0,0.76,156.95,3.157,1,2.0
1,1,8,4,2,1,7,39,5,4,5,1,1,2.0,0.73,157.68,1.388,1,2.0
1,1,9,4,2,2,24,23,3,5,3,1,1,2.0,0.61,158.29,1.338,1,1.0
1,1,10,4,2,3,2,51,5,4,5,1,1,2.0,0.6,158.89,3.114,1,1.0
1,1,11,4,2,4,15,24,5,3,5,1,1,2.0,0.58,159.47,1.93,1,1.0
1,1,12,4,1,1,35,16,3,5,5,2,1,2.0,0.78,160.25,2.65,1,2.0
1,1,14,4,1,3,33,9,4,3,3,2,1,2.0,0.64,160.89,0.786,1,
1,1,15,4,1,4,39,38,3,4,4,2,1,2.0,0.65,161.54,1.952,1,1.0
1,1,16,4,1,5,23,29,3,2,3,1,1,1.0,0.18,161.72,0.967,0,2.0
1,1,17,4,2,1,34,47,5,4,5,1,1,2.0,0.7,162.42,2.19,1,1.0
1,1,18,4,2,2,17,53,5,2,5,1,1,2.0,0.98,163.4,2.796,1,1.0
1,1,19,4,2,3,28,46,4,2,4,1,1,2.0,0.7,164.1,1.273,1,1.0
1,1,20,4,2,4,51,35,5,3,5,1,1,2.0,0.5,164.6,1.668,1,1.0
1,1,21,4,2,5,49,43,5,4,5,1,1,2.0,0.7,165.3,1.022,1,1.0
1,1,22,4,1,1,51,46,5,4,5,1,1,1.0,0.16,165.46,1.714,0,1.0
1,1,24,4,1,3,53,43,5,2,5,1,1,1.0,0.35,165.81,1.402,0,
1,1,25,4,1,4,35,41,2,4,4,2,1,2.0,0.47,166.28,3.496,1,2.0
1,1,26,4,1,5,23,53,4,2,2,2,1,2.0,0.75,167.03,2.905,1,1.0
1,1,27,4,1,6,14,12,5,3,3,2,1,2.0,0.8,167.83,1.331,1,1.0
1,1,28,4,2,1,5,28,3,4,4,2,1,1.0,0.52,168.35,0.707,0,1.0
1,1,29,4,1,1,32,16,4,5,4,1,1,1.0,0.5,168.85,1.932,0,2.0
1,1,30,4,1,2,8,38,2,3,3,2,1,2.0,0.58,169.43,2.277,1,2.0
1,1,31,4,1,3,5,35,3,5,5,2,1,2.0,0.72,170.15,2.063,1,1.0
1,1,32,4,1,4,15,37,4,5,5,2,1,2.0,0.77,170.92,2.746,1,1.0
1,1,33,4,2,1,52,54,3,2,3,1,1,2.0,0.54,171.46,1.474,1,2.0
1,1,34,4,2,2,13,17,3,4,3,1,1,2.0,0.69,172.15,1.436,1,1.0
1,1,35,4,2,3,40,24,5,4,5,1,1,2.0,0.76,172.91,4.185,1,1.0
1,1,36,4,1,1,34,10,5,2,2,2,1,2.0,0.52,173.43,0.998,1,2.0
1,1,37,4,1,2,16,46,3,2,2,2,1,2.0,0.55,173.98,1.308,1,1.0
1,1,38,4,1,3,37,46,4,2,2,2,1,2.0,0.76,174.74,2.741,1,1.0
1,1,39,4,2,1,39,4,2,5,2,1,1,2.0,0.67,175.41,2.413,1,2.0
1,1,40,4,2,2,2,18,4,5,4,1,1,2.0,0.73,176.14,1.41,1,1.0
1,1,41,4,1,1,48,30,4,3,3,2,1,2.0,0.83,176.97,1.319,1,2.0
1,1,42,4,1,2,13,39,4,2,2,2,1,2.0,0.72,177.69,2.104,1,1.0
1,1,44,4,1,1,2,51,4,5,5,2,1,2.0,0.57,178.26,2.538,1,
1,1,45,4,1,2,3,35,3,2,3,1,1,1.0,0.42,178.68,2.586,0,2.0
1,1,46,4,1,3,33,22,3,2,2,2,1,2.0,0.65,179.33,2.632,1,2.0
1,1,47,4,2,1,47,42,5,2,5,1,1,2.0,0.57,179.9,2.628,1,2.0
1,1,48,4,2,2,19,48,4,5,4,1,1,2.0,0.91,180.81,1.672,1,1.0
1,1,49,4,2,3,50,35,4,5,4,1,1,2.0,0.68,181.49,2.363,1,1.0
1,1,50,4,2,4,24,2,2,5,2,1,1,2.0,0.56,182.05,0.938,1,1.0
1,1,51,4,2,5,33,37,2,5,2,1,1,2.0,0.74,182.79,2.185,1,1.0
1,1,52,4,1,1,16,32,4,3,4,1,1,1.0,0.53,183.32,2.623,0,1.0
1,1,53,4,1,2,29,47,5,4,4,2,1,2.0,0.74,184.06,2.756,1,2.0
1,1,54,4,1,3,29,54,5,2,2,2,1,2.0,0.76,184.82,2.332,1,1.0
1,1,55,4,1,4,9,16,3,2,2,2,1,2.0,0.68,185.5,1.739,1,1.0
1,1,56,4,1,5,38,8,2,4,4,2,1,2.0,0.65,186.15,0.915,1,1.0
1,1,57,4,2,1,17,14,2,4,2,1,1,2.0,0.77,186.92,1.964,1,2.0
1,1,58,4,2,2,32,34,2,4,2,1,1,2.0,0.64,187.56,2.067,1,1.0
1,1,59,4,2,3,5,11,5,2,5,1,1,2.0,0.68,188.24,2.581,1,1.0
1,1,60,4,1,1,41,50,2,5,5,2,1,2.0,0.6,188.84,1.651,1,2.0
1,1,61,4,1,2,51,43,2,3,3,2,1,2.0,0.59,189.43,2.792,1,1.0
1,1,62,4,2,1,14,41,4,5,4,1,1,2.0,0.64,190.07,2.564,1,2.0
1,1,63,4,2,2,14,22,2,4,2,1,1,2.0,0.53,190.6,2.124,1,1.0
1,1,64,4,2,3,29,50,5,2,5,1,1,2.0,0.7,191.3,3.332,1,1.0
1,1,65,4,2,4,52,3,3,4,3,1,1,2.0,0.68,191.98,2.268,1,1.0
1,1,66,4,2,5,41,8,2,3,2,1,1,2.0,0.66,192.64,2.519,1,1.0
1,1,67,4,2,6,38,33,2,5,2,1,1,2.0,0.4,193.04,2.48,1,1.0
1,1,68,4,1,1,46,35,4,3,3,2,1,2.0,0.61,193.65,2.121,1,2.0
1,1,69,4,1,2,44,38,5,3,3,2,1,2.0,0.7,194.35,2.226,1,1.0
1,1,70,4,1,3,32,23,2,4,4,2,1,2.0,0.71,195.06,2.079,1,1.0
1,1,71,4,1,4,41,27,2,5,5,2,1,2.0,0.69,195.75,2.61,1,1.0
1,1,72,4,2,1,29,33,3,4,3,1,1,2.0,0.66,196.41,1.383,1,2.0
1,1,73,4,2,2,37,20,2,3,3,2,1,1.0,0.14,196.55,3.629,0,2.0
1,1,74,4,2,3,5,37,3,4,3,1,1,2.0,0.71,197.26,2.705,1,2.0
1,1,75,4,2,4,1,12,3,5,3,1,1,2.0,0.65,197.91,1.379,1,1.0
1,1,76,4,1,1,33,49,2,5,5,2,1,2.0,0.72,198.63,1.089,1,2.0
1,1,77,4,2,1,2,29,2,3,2,1,1,2.0,0.74,199.37,2.195,1,2.0
1,1,79,4,1,1,33,47,3,5,5,2,1,2.0,0.66,200.03,2.197,1,
1,1,80,4,1,2,40,53,3,5,5,2,1,2.0,0.71,200.74,3.49,1,1.0
1,1,81,4,1,3,27,15,3,2,3,1,1,1.0,0.29,201.03,0.804,0,2.0
1,1,82,4,1,4,18,16,5,3,3,2,1,2.0,0.63,201.66,2.201,1,2.0
1,1,83,4,1,5,37,8,3,4,4,2,1,2.0,0.62,202.28,3.095,1,1.0
1,1,84,4,1,6,12,46,2,3,2,1,1,1.0,0.22,202.5,2.449,0,2.0
2,2,1,1,2,1,19,9,3,2,3,1,1,1.0,0.28,0.28,3.605,1,
2,2,2,1,2,2,2,22,4,5,4,1,1,1.0,0.14,0.42,1.462,1,1.0
2,2,3,1,2,3,35,47,3,2,3,1,1,1.0,0.35,0.77,3.737,1,1.0
2,2,5,1,1,1,23,35,4,2,2,2,1,1.0,0.37,1.14,5.906,1,
2,2,6,1,1,2,54,7,2,4,4,2,1,1.0,0.2,1.34,2.259,1,1.0
2,2,7,1,1,3,44,43,2,3,3,2,1,1.0,0.47,1.81,2.748,1,1.0
2,2,8,1,2,1,31,42,3,5,3,1,1,1.0,0.47,2.28,2.802,1,2.0
2,2,9,1,2,2,28,46,3,4,3,1,1,1.0,0.33,2.61,2.014,1,1.0
2,2,10,1,2,3,45,38,4,5,4,1,1,1.0,0.37,2.98,4.424,1,1.0
2,2,11,1,1,1,47,5,4,3,3,2,1,1.0,0.35,3.33,3.194,1,2.0
2,2,12,1,1,2,8,5,5,3,3,2,1,1.0,0.31,3.64,3.361,1,1.0
2,2,13,1,1,3,51,22,5,3,3,2,1,1.0,0.42,4.06,1.775,1,1.0
2,2,14,1,1,4,46,41,2,5,5,2,1,1.0,0.26,4.32,3.528,1,1.0
2,2,15,1,2,1,48,38,3,4,3,1,1,1.0,0.59,4.91,2.659,1,2.0
2,2,16,1,1,1,19,42,3,2,2,2,1,1.0,0.32,5.23,4.735,1,2.0
2,2,17,1,1,2,28,29,5,4,4,2,1,1.0,0.35,5.58,2.695,1,1.0
2,2,18,1,1,3,35,13,5,2,2,2,1,1.0,0.46,6.04,1.327,1,1.0
2,2,19,1,1,4,22,53,4,3,3,2,1,1.0,0.34,6.38,2.376,1,1.0
2,2,20,1,1,5,8,32,5,4,4,2,1,1.0,0.32,6.7,1.945,1,1.0
2,2,21,1,2,1,1,18,2,5,2,1,1,1.0,0.23,6.93,1.674,1,2.0
2,2,22,1,2,2,54,43,4,2,4,1,1,1.0,0.37,7.3,3.682,1,1.0
2,2,23,1,2,3,38,3,5,4,5,1,1,1.0,0.18,7.48,4.378,1,1.0
2,2,24,1,2,4,31,8,5,4,5,1,1,1.0,0.42,7.9,3.338,1,1.0
2,2,26,1,2,6,51,3,2,4,2,1,1,1.0,0.25,8.67,1.56,1,1.0
2,2,27,1,1,1,28,30,3,5,3,1,1,2.0,0.77,9.44,1.818,0,1.0
2,2,28,1,1,2,24,43,3,5,5,2,1,1.0,0.48,9.92,4.217,1,2.0
2,2,29,1,1,3,23,29,3,5,5,2,1,1.0,0.15,10.07,4.505,1,1.0
2,2,30,1,1,4,31,7,5,4,4,2,1,1.0,0.16,10.23,1.537,1,1.0
2,2,31,1,1,5,12,31,4,2,2,2,1,1.0,0.4,10.63,2.448,1,1.0
2,2,32,1,1,6,21,26,2,3,3,2,1,1.0,0.29,10.92,5.688,1,1.0
2,2,33,1,2,1,34,10,5,3,3,2,1,2.0,0.75,11.67,1.257,0,1.0
2,2,34,1,2,2,19,42,2,4,2,1,1,1.0,0.43,12.1,5.431,1,2.0
2,2,35,1,1,1,46,27,2,3,3,2,1,1.0,0.42,12.52,4.328,1,2.0
2,2,36,1,1,2,34,41,3,5,5,2,1,1.0,0.49,13.01,3.385,1,1.0
2,2,37,1,2,1,39,52,5,3,5,1,1,1.0,0.41,13.42,2.028,1,2.0
2,2,38,1,2,2,8,40,2,5,2,1,1,1.0,0.47,13.89,2.462,1,1.0
2,2,39,1,2,3,5,3,3,2,3,1,1,1.0,0.19,14.08,1.388,1,1.0
2,2,40,1,2,4,28,7,2,3,2,1,1,1.0,0.33,14.41,3.719,1,1.0
2,2,41,1,2,5,33,4,3,4,3,1,1,1.0,0.31,14.72,3.063,1,1.0
2,2,42,1,1,1,46,32,3,4,4,2,1,1.0,0.14,14.86,4.216,1,2.0
2,2,43,1,2,1,21,7,4,3,4,1,1,1.0,0.36,15.22,2.119,1,2.0
2,2,44,1,2,2,26,54,2,4,2,1,1,1.0,0.21,15.43,1.354,1,1.0
2,2,45,1,2,3,3,38,5,2,5,1,1,1.0,0.5,15.93,2.703,1,1.0
2,2,46,1,2,4,13,44,2,5,2,1,1,1.0,0.24,16.17,2.931,1,1.0
2,2,47,1,2,5,25,17,4,5,4,1,1,1.0,0.4,16.57,2.991,1,1.0
2,2,48,1,2,6,22,34,5,3,5,1,1,1.0,0.36,16.93,1.785,1,1.0
2,2,49,1,1,1,17,45,5,2,2,2,1,1.0,0.22,17.15,1.937,1,2.0
2,2,50,1,1,2,2,26,4,5,5,2,1,1.0,0.08,17.23,2.082,1,1.0
2,2,51,1,1,3,32,39,3,5,5,2,1,1.0,0.33,17.56,2.872,1,1.0
2,2,52,1,1,4,31,35,2,3,3,2,1,1.0,0.21,17.77,3.959,1,1.0
2,2,53,1,1,5,52,1,4,2,2,2,1,1.0,0.41,18.18,3.059,1,1.0
2,2,54,1,1,6,48,30,2,5,5,2,1,1.0,0.39,18.57,2.337,1,1.0
2,2,55,1,2,1,9,38,4,3,4,1,1,1.0,0.53,19.1,1.568,1,2.0
2,2,56,1,2,2,2,26,2,5,2,1,1,1.0,0.4,19.5,3.178,1,1.0
2,2,57,1,2,3,17,6,3,5,3,1,1,1.0,0.26,19.76,3.704,1,1.0
2,2,58,1,2,4,25,28,2,3,2,1,1,1.0,0.38,20.14,1.088,1,1.0
2,2,59,1,2,5,14,35,4,5,4,1,1,1.0,0.21,20.35,4.135,1,1.0
2,2,60,1,1,1,41,18,4,2,2,2,1,1.0,0.33,20.68,3.032,1,2.0
2,2,61,1,2,1,36,23,4,2,4,1,1,1.0,0.33,21.01,2.793,1,2.0
2,2,62,1,2,2,17,28,5,3,5,1,1,1.0,0.33,21.34,3.141,1,1.0
2,2,63,1,1,1,53,49,5,2,2,2,1,1.0,0.3,21.64,3.672,1,2.0
2,2,64,1,1,2,49,5,5,4,4,2,1,1.0,0.46,22.1,2.801,1,1.0
2,2,65,1,2,1,16,12,2,4,2,1,1,1.0,0.11,22.21,2.805,1,2.0
2,2,66,1,2,2,39,27,3,2,3,1,1,1.0,0.38,22.59,3.875,1,1.0
2,2,67,1,2,3,33,26,3,4,3,1,1,1.0,0.44,23.03,3.354,1,1.0
2,2,68,1,1,1,16,39,5,2,2,2,1,1.0,0.42,23.45,3.613,1,2.0
2,2,69,1,1,2,13,34,2,3,3,2,1,1.0,0.4,23.85,3.232,1,1.0
2,2,70,1,1,3,40,54,4,3,3,2,1,1.0,0.34,24.19,3.289,1,1.0
2,2,71,1,1,4,33,43,5,3,3,2,1,1.0,0.41,24.6,2.623,1,1.0
2,2,72,1,1,5,41,30,4,2,2,2,1,1.0,0.4,25.0,3.447,1,1.0
2,2,73,1,2,1,50,31,3,4,3,1,1,1.0,0.3,25.3,4.238,1,2.0
2,2,74,1,1,1,49,30,2,4,4,2,1,1.0,0.29,25.59,3.931,1,2.0
2,2,75,1,1,2,51,52,4,5,5,2,1,1.0,0.3,25.89,3.752,1,1.0
2,2,76,1,1,3,53,20,4,3,3,2,1,1.0,0.16,26.05,2.88,1,1.0
2,2,77,1,1,4,5,17,3,2,2,2,1,1.0,0.31,26.36,3.215,1,1.0
2,2,78,1,2,1,19,30,5,2,5,1,1,1.0,0.35,26.71,3.175,1,2.0
2,2,79,1,2,2,50,19,2,5,2,1,1,1.0,0.37,27.08,2.704,1,1.0
2,2,80,1,2,3,8,22,4,3,4,1,1,1.0,0.5,27.58,5.968,1,1.0
2,2,81,1,2,4,26,29,3,2,3,1,1,1.0,0.29,27.87,1.88,1,1.0
2,2,82,1,1,1,35,37,4,5,5,2,1,1.0,0.41,28.28,3.324,1,2.0
2,2,83,1,1,2,51,30,3,4,4,2,1,1.0,0.43,28.71,4.178,1,1.0
2,2,84,1,1,3,51,48,5,2,2,2,1,1.0,0.44,29.15,2.279,1,1.0
2,2,1,2,2,1,49,12,3,5,3,1,1,1.0,0.22,29.37,3.474,1,
2,2,2,2,2,2,26,27,5,3,5,1,1,1.0,0.36,29.73,3.502,1,1.0
2,2,3,2,2,3,29,27,4,3,4,1,1,1.0,0.36,30.09,2.426,1,1.0
2,2,4,2,1,1,31,44,3,5,5,2,1,1.0,0.21,30.3,2.042,1,2.0
2,2,5,2,1,2,24,30,4,3,3,2,1,1.0,0.25,30.55,4.818,1,1.0
2,2,6,2,1,3,18,37,5,4,4,2,1,1.0,0.46,31.01,3.065,1,1.0
2,2,7,2,2,1,39,32,5,4,5,1,1,1.0,0.32,31.33,3.12,1,2.0
2,2,8,2,2,2,10,44,4,3,4,1,1,1.0,0.38,31.71,1.152,1,1.0
2,2,9,2,1,1,34,49,5,4,4,2,1,1.0,0.34,32.05,2.226,1,2.0
2,2,10,2,2,1,35,26,4,5,4,1,1,1.0,0.26,32.31,1.167,1,2.0
2,2,11,2,2,2,2,8,4,2,4,1,1,1.0,0.27,32.58,4.391,1,1.0
2,2,12,2,2,3,49,48,4,5,4,1,1,1.0,0.39,32.97,2.088,1,1.0
2,2,13,2,2,4,29,43,3,5,3,1,1,1.0,0.22,33.19,4.521,1,1.0
2,2,14,2,2,5,5,12,5,4,5,1,1,1.0,0.43,33.62,4.153,1,1.0
2,2,15,2,2,6,50,2,2,5,2,1,1,1.0,0.4,34.02,1.482,1,1.0
2,2,16,2,1,1,43,35,2,4,4,2,1,1.0,0.24,34.26,2.696,1,2.0
2,2,17,2,1,2,27,4,4,5,5,2,1,1.0,0.3,34.56,6.448,1,1.0
2,2,18,2,1,3,5,44,3,2,2,2,1,1.0,0.19,34.75,2.512,1,1.0
2,2,19,2,1,4,53,34,3,4,4,2,1,1.0,0.07,34.82,2.935,1,1.0
2,2,20,2,2,1,17,48,4,2,4,1,1,1.0,0.45,35.27,3.001,1,2.0
2,2,21,2,2,2,14,9,3,2,3,1,1,1.0,0.27,35.54,4.611,1,1.0
2,2,22,2,2,3,11,3,2,3,2,1,1,1.0,0.37,35.91,1.256,1,1.0
2,2,23,2,2,4,20,8,4,5,5,2,1,2.0,0.69,36.6,2.687,0,2.0
2,2,24,2,2,5,24,23,3,4,3,1,1,1.0,0.34,36.94,3.513,1,2.0
2,2,25,2,1,1,18,4,5,3,3,2,1,1.0,0.21,37.15,2.348,1,2.0
2,2,26,2,1,2,2,24,3,5,3,1,1,2.0,0.56,37.71,1.496,0,2.0
2,2,27,2,1,3,17,43,4,5,5,2,1,1.0,0.29,38.0,3.823,1,2.0
2,2,28,2,1,4,44,15,2,5,2,1,1,2.0,0.53,38.53,2.6,0,2.0
2,2,29,2,1,5,4,20,2,3,2,1,1,2.0,0.54,39.07,3.854,0,1.0
2,2,30,2,1,6,12,19,5,4,5,1,1,2.0,0.84,39.91,6.023,0,1.0
2,2,31,2,2,1,13,18,2,4,4,2,1,2.0,0.67,40.58,5.696,0,2.0
2,2,32,2,2,2,36,43,5,2,2,2,1,2.0,0.52,41.1,2.321,0,1.0
2,2,33,2,2,3,46,5,3,4,4,2,1,2.0,0.66,41.76,4.184,0,1.0
2,2,34,2,2,4,23,28,2,3,3,2,1,2.0,0.53,42.29,1.63,0,1.0
2,2,35,2,1,1,18,7,2,5,2,1,1,2.0,0.51,42.8,3.89,0,2.0
2,2,36,2,1,2,45,6,4,3,4,1,1,2.0,0.64,43.44,5.337,0,1.0
2,2,37,2,2,1,6,27,3,4,4,2,1,2.0,0.78,44.22,3.05,0,2.0
2,2,38,2,1,1,25,36,2,5,2,1,1,2.0,0.68,44.9,3.393,0,2.0
2,2,39,2,1,2,24,44,3,5,3,1,1,2.0,0.74,45.64,2.209,0,1.0
2,2,40,2,1,3,9,2,5,3,5,1,1,2.0,0.53,46.17,8.875,0,1.0
2,2,41,2,1,4,18,3,4,2,4,1,1,2.0,0.61,46.78,4.241,0,1.0
2,2,42,2,1,5,39,52,3,2,3,1,1,2.0,0.64,47.42,4.33,0,1.0
2,2,43,2,2,1,50,12,2,3,3,2,1,2.0,0.52,47.94,2.413,0,2.0
2,2,44,2,1,1,41,47,5,4,5,1,1,2.0,0.51,48.45,4.193,0,2.0
2,2,45,2,1,2,48,29,2,5,2,1,1,2.0,0.78,49.23,3.463,0,1.0
2,2,46,2,1,3,29,50,4,2,4,1,1,2.0,0.67,49.9,2.832,0,1.0
2,2,47,2,1,4,49,44,5,2,5,1,1,2.0,0.59,50.49,4.048,0,1.0
2,2,48,2,2,1,4,17,5,4,4,2,1,2.0,0.76,51.25,4.055,0,2.0
2,2,49,2,2,2,45,37,4,5,5,2,1,2.0,0.69,51.94,3.609,0,1.0
2,2,50,2,2,3,14,3,5,3,3,2,1,2.0,0.55,52.49,4.008,0,1.0
2,2,51,2,2,4,46,2,2,4,2,1,1,1.0,0.49,52.98,2.105,1,2.0
2,2,52,2,2,5,4,46,4,3,3,2,1,2.0,0.7,53.68,1.591,0,2.0
2,2,53,2,1,1,48,13,3,4,3,1,1,2.0,0.84,54.52,3.239,0,2.0
2,2,54,2,1,2,3,16,2,5,2,1,1,2.0,0.8,55.32,6.369,0,1.0
2,2,55,2,1,3,14,26,3,5,3,1,1,2.0,0.59,55.91,6.242,0,1.0
2,2,56,2,1,4,13,10,3,4,3,1,1,2.0,0.51,56.42,1.666,0,1.0
2,2,57,2,1,5,46,6,3,2,3,1,1,2.0,0.66,57.08,1.786,0,1.0
2,2,58,2,2,1,50,37,4,3,3,2,1,2.0,0.63,57.71,3.289,0,2.0
2,2,59,2,2,2,31,27,4,2,2,2,1,2.0,0.57,58.28,2.18,0,1.0
2,2,60,2,2,3,18,6,5,2,2,2,1,2.0,0.73,59.01,8.064,0,1.0
2,2,61,2,2,4,12,4,5,2,2,2,1,2.0,0.84,59.85,4.201,0,1.0
2,2,62,2,1,1,12,30,4,2,4,1,1,2.0,0.6,60.45,4.655,0,2.0
2,2,63,2,2,1,28,46,2,4,4,2,1,2.0,0.57,61.02,1.778,0,2.0
2,2,64,2,2,2,38,19,2,5,5,2,1,2.0,0.64,61.66,3.37,0,1.0
2,2,65,2,1,1,31,20,4,5,4,1,1,2.0,0.75,62.41,2.912,0,2.0
2,2,67,2,2,1,3,7,2,3,3,2,1,2.0,0.53,63.51,3.481,0,2.0
2,2,68,2,2,2,4,53,5,2,2,2,1,2.0,0.65,64.16,2.85,0,1.0
2,2,69,2,2,3,24,44,2,4,4,2,1,2.0,0.66,64.82,1.903,0,1.0
2,2,70,2,2,4,9,13,2,4,4,2,1,2.0,0.72,65.54,3.777,0,1.0
2,2,71,2,2,5,31,27,2,3,3,2,1,2.0,0.6,66.14,7.64,0,1.0
2,2,74,2,1,2,23,24,5,3,5,1,1,2.0,0.65,66.79,3.411,0,
2,2,75,2,1,3,14,29,3,2,3,1,1,2.0,0.62,67.41,2.178,0,1.0
2,2,76,2,2,1,44,17,2,3,3,2,1,2.0,0.66,68.07,5.439,0,2.0
2,2,77,2,2,2,9,29,3,2,2,2,1,2.0,0.85,68.92,5.295,0,1.0
2,2,78,2,2,3,31,22,4,3,3,2,1,2.0,0.6,69.52,2.8,0,1.0
2,2,79,2,1,1,34,1,5,2,5,1,1,2.0,0.51,70.03,4.856,0,2.0
2,2,80,2,1,2,34,26,5,3,5,1,1,2.0,0.72,70.75,8.611,0,1.0
2,2,81,2,1,3,7,24,5,2,5,1,1,2.0,0.56,71.31,2.866,0,1.0
2,2,82,2,1,4,28,44,5,3,5,1,1,2.0,0.67,71.98,2.151,0,1.0
2,2,83,2,1,5,11,47,3,2,3,1,1,2.0,0.59,72.57,6.817,0,1.0
2,2,84,2,1,6,28,43,2,4,2,1,1,2.0,0.73,73.3,5.992,0,1.0
2,2,1,3,1,1,3,24,4,2,4,1,1,2.0,0.73,74.03,5.889,0,
2,2,2,3,1,2,24,46,2,4,2,1,1,2.0,0.64,74.67,7.11,0,1.0
2,2,3,3,1,3,43,51,4,5,4,1,1,2.0,0.42,75.09,2.088,0,1.0
2,2,4,3,1,4,45,30,2,3,2,1,1,2.0,0.68,75.77,5.186,0,1.0
2,2,5,3,2,1,7,38,3,4,4,2,1,2.0,0.85,76.62,3.177,0,2.0
2,2,6,3,2,2,38,2,5,4,4,2,1,2.0,0.79,77.41,4.861,0,1.0
2,2,7,3,2,3,46,35,3,5,5,2,1,2.0,0.48,77.89,5.336,0,1.0
2,2,8,3,2,4,16,1,2,3,3,2,1,2.0,0.66,78.55,5.44,0,1.0
2,2,9,3,1,1,53,35,4,2,4,1,1,2.0,0.59,79.14,4.249,0,2.0
2,2,10,3,1,2,51,35,4,3,4,1,1,2.0,0.55,79.69,5.881,0,1.0
2,2,11,3,2,1,36,47,3,4,4,2,1,2.0,0.52,80.21,2.144,0,2.0
2,2,12,3,2,2,17,44,2,5,5,2,1,2.0,0.7,80.91,6.551,0,1.0
2,2,13,3,1,1,10,30,2,5,2,1,1,2.0,0.62,81.53,2.033,0,2.0
2,2,14,3,1,2,33,10,4,5,4,1,1,2.0,0.67,82.2,5.471,0,1.0
2,2,15,3,1,3,51,2,2,5,2,1,1,2.0,0.62,82.82,2.218,0,1.0
2,2,16,3,1,4,44,39,3,5,3,1,1,2.0,0.61,83.43,2.815,0,1.0
2,2,17,3,1,5,18,31,3,5,3,1,1,2.0,0.71,84.14,4.192,0,1.0
2,2,18,3,2,1,48,25,3,2,3,1,1,1.0,0.42,84.56,3.12,1,1.0
2,2,19,3,2,2,1,10,4,3,3,2,1,2.0,0.92,85.48,1.671,0,2.0
2,2,21,3,1,1,20,36,2,3,3,2,1,1.0,0.21,86.2,2.311,1,1.0
2,2,22,3,2,1,48,16,4,2,2,2,1,2.0,0.79,86.99,4.256,0,1.0
2,2,23,3,2,2,17,15,2,5,5,2,1,2.0,0.62,87.61,5.711,0,1.0
2,2,24,3,2,3,17,33,2,5,5,2,1,2.0,0.5,88.11,2.097,0,1.0
2,2,25,3,2,4,24,53,4,5,5,2,1,2.0,0.7,88.81,1.531,0,1.0
2,2,26,3,2,5,47,29,4,2,2,2,1,2.0,0.85,89.66,5.218,0,1.0
2,2,27,3,1,1,2,14,4,2,4,1,1,2.0,0.75,90.41,5.316,0,2.0
2,2,28,3,1,2,3,18,3,5,3,1,1,2.0,0.9,91.31,3.495,0,1.0
2,2,29,3,1,3,27,20,4,3,4,1,1,2.0,0.73,92.04,5.825,0,1.0
2,2,30,3,1,4,30,39,4,3,4,1,1,2.0,0.89,92.93,5.247,0,1.0
2,2,31,3,1,5,54,27,5,3,5,1,1,2.0,0.63,93.56,2.849,0,1.0
2,2,32,3,1,6,32,22,4,3,4,1,1,2.0,0.53,94.09,6.313,0,1.0
2,2,33,3,2,1,37,53,5,3,3,2,1,2.0,0.64,94.73,4.872,0,2.0
2,2,34,3,1,1,25,54,5,4,5,1,1,2.0,0.81,95.54,2.424,0,2.0
2,2,35,3,1,2,50,32,2,4,2,1,1,2.0,0.54,96.08,4.111,0,1.0
2,2,36,3,1,3,43,34,5,4,5,1,1,2.0,0.74,96.82,2.775,0,1.0
2,2,37,3,2,1,47,45,3,4,4,2,1,2.0,0.6,97.42,6.585,0,2.0
2,2,38,3,2,2,38,12,3,2,2,2,1,2.0,0.73,98.15,5.679,0,1.0
2,2,39,3,2,3,43,33,5,2,2,2,1,2.0,0.54,98.69,3.577,0,1.0
2,2,40,3,2,4,12,11,5,3,3,2,1,2.0,0.68,99.37,3.745,0,1.0
2,2,41,3,2,5,2,14,2,3,3,2,1,2.0,0.43,99.8,1.874,0,1.0
2,2,42,3,2,6,38,54,5,2,2,2,1,2.0,0.61,100.41,5.256,0,1.0
2,2,43,3,1,1,30,22,2,3,2,1,1,2.0,0.72,101.13,4.411,0,2.0
2,2,44,3,1,2,45,44,3,2,3,1,1,2.0,0.63,101.76,4.831,0,1.0
2,2,45,3,1,3,47,43,4,3,4,1,1,2.0,0.81,102.57,1.834,0,1.0
2,2,46,3,1,4,4,28,4,2,4,1,1,2.0,0.59,103.16,7.015,0,1.0
2,2,47,3,2,1,31,51,3,4,4,2,1,2.0,0.39,103.55,2.073,0,2.0
2,2,48,3,2,2,2,16,5,4,4,2,1,2.0,0.52,104.07,6.113,0,1.0
2,2,49,3,2,3,33,12,2,5,5,2,1,2.0,0.79,104.86,5.119,0,1.0
2,2,50,3,1,1,47,39,5,3,5,1,1,2.0,0.65,105.51,3.743,0,2.0
2,2,51,3,2,1,19,32,5,3,3,2,1,2.0,0.71,106.22,4.728,0,2.0
2,2,52,3,2,2,5,31,2,5,5,2,1,2.0,0.78,107.0,5.224,0,1.0
2,2,53,3,2,3,26,42,2,4,4,2,1,2.0,0.42,107.42,4.193,0,1.0
2,2,54,3,2,4,8,42,5,3,3,2,1,2.0,0.59,108.01,2.69,0,1.0
2,2,55,3,2,5,41,23,3,5,5,2,1,2.0,0.58,108.59,5.049,0,1.0
2,2,56,3,2,6,48,18,5,2,2,2,1,2.0,0.55,109.14,4.208,0,1.0
2,2,57,3,1,1,48,35,2,4,2,1,1,2.0,0.65,109.79,1.913,0,2.0
2,2,58,3,1,2,9,7,2,4,2,1,1,2.0,0.85,110.64,2.6,0,1.0
2,2,59,3,1,3,16,53,3,4,4,2,1,1.0,0.33,110.97,4.72,1,2.0
2,2,60,3,1,4,1,11,4,5,4,1,1,2.0,0.81,111.78,4.537,0,2.0
2,2,61,3,1,5,12,34,5,2,5,1,1,2.0,0.58,112.36,3.571,0,1.0
2,2,62,3,1,6,20,51,5,2,5,1,1,2.0,0.67,113.03,2.307,0,1.0
2,2,63,3,2,1,41,39,5,3,3,2,1,2.0,0.57,113.6,4.543,0,2.0
2,2,64,3,2,2,4,22,5,2,2,2,1,2.0,0.74,114.34,5.503,0,1.0
2,2,65,3,2,3,29,27,5,2,2,2,1,2.0,0.64,114.98,3.538,0,1.0
2,2,66,3,2,4,35,52,3,2,2,2,1,2.0,0.72,115.7,6.199,0,1.0
2,2,67,3,1,1,38,8,4,5,4,1,1,2.0,0.75,116.45,1.897,0,2.0
2,2,68,3,1,2,48,13,4,5,4,1,1,2.0,0.66,117.11,1.472,0,1.0
2,2,69,3,1,3,41,20,3,5,3,1,1,2.0,0.77,117.88,4.571,0,1.0
2,2,70,3,1,4,1,43,2,3,2,1,1,2.0,0.94,118.82,6.882,0,1.0
2,2,71,3,1,5,38,17,3,2,3,1,1,2.0,0.73,119.55,5.6,0,1.0
2,2,72,3,2,1,6,20,3,5,5,2,1,2.0,0.67,120.22,5.368,0,2.0
2,2,73,3,2,2,29,16,4,3,3,2,1,2.0,0.77,120.99,1.33,0,1.0
2,2,74,3,1,1,2,20,2,4,2,1,1,2.0,0.67,121.66,4.217,0,2.0
2,2,75,3,1,2,17,33,2,3,2,1,1,2.0,0.54,122.2,4.993,0,1.0
2,2,76,3,1,3,35,6,4,2,4,1,1,2.0,0.72,122.92,3.268,0,1.0
2,2,77,3,2,1,37,46,3,4,4,2,1,2.0,0.67,123.59,5.801,0,2.0
2,2,78,3,2,2,1,28,3,2,2,2,1,2.0,0.63,124.22,4.904,0,1.0
2,2,79,3,2,3,48,50,5,4,4,2,1,2.0,0.82,125.04,3.444,0,1.0
2,2,80,3,2,4,20,11,3,2,2,2,1,2.0,0.89,125.93,1.479,0,1.0
2,2,81,3,2,5,50,44,3,4,4,2,1,2.0,0.61,126.54,1.647,0,1.0
2,2,82,3,1,1,19,20,2,4,2,1,1,2.0,0.68,127.22,6.566,0,2.0
2,2,83,3,1,2,10,31,5,4,5,1,1,2.0,0.57,127.79,1.185,0,1.0
2,2,84,3,2,1,5,15,5,4,4,2,1,2.0,0.75,128.54,8.89,0,2.0
3,2,2,1,1,2,23,51,2,3,3,2,1,1.0,0.28,0.28,2.713,1,
3,2,3,1,1,3,39,15,5,4,4,2,1,1.0,0.14,0.42,4.594,1,1.0
3,2,4,1,2,1,26,2,2,3,2,1,1,1.0,0.35,0.77,4.708,1,2.0
3,2,5,1,2,2,54,44,2,5,2,1,1,1.0,0.37,1.14,1.716,1,1.0
3,2,6,1,2,3,29,3,5,3,3,2,1,2.0,0.53,1.67,5.954,0,2.0
3,2,7,1,2,4,4,15,3,4,4,2,1,2.0,0.81,2.48,2.355,0,1.0
3,2,8,1,1,1,28,30,5,4,4,2,1,1.0,0.47,2.95,4.486,1,1.0
3,2,9,1,2,1,2,5,2,5,5,2,1,2.0,0.66,3.61,3.587,0,1.0
3,2,10,1,2,2,36,43,5,2,2,2,1,2.0,0.71,4.32,4.213,0,1.0
3,2,11,1,2,3,5,46,5,3,5,1,1,1.0,0.35,4.67,2.708,1,2.0
3,2,12,1,2,4,34,53,3,5,5,2,1,2.0,0.65,5.32,5.591,0,2.0
3,2,13,1,2,5,3,26,4,5,5,2,1,2.0,0.75,6.07,1.956,0,1.0
3,2,14,1,2,6,28,5,3,2,2,2,1,2.0,0.6,6.67,2.87,0,1.0
3,2,15,1,1,1,7,8,3,2,2,2,1,1.0,0.59,7.26,8.63,1,1.0
3,2,16,1,1,2,2,39,3,2,3,1,1,2.0,0.65,7.91,5.192,0,2.0
3,2,17,1,1,3,13,5,5,3,5,1,1,2.0,0.68,8.59,4.534,0,1.0
3,2,18,1,1,4,5,13,4,2,4,1,1,2.0,0.79,9.38,3.366,0,1.0
3,2,19,1,1,5,52,54,4,2,4,1,1,2.0,0.67,10.05,1.4,0,1.0
3,2,21,1,2,2,34,20,5,2,5,1,1,1.0,0.32,10.37,2.14,1,
3,2,22,1,1,1,10,3,4,2,2,2,1,1.0,0.23,10.6,7.412,1,2.0
3,2,23,1,1,2,34,30,2,4,4,2,1,1.0,0.37,10.97,9.111,1,1.0
3,2,24,1,1,3,12,15,4,5,5,2,1,1.0,0.18,11.15,2.597,1,1.0
3,2,25,1,1,4,52,34,4,5,5,2,1,1.0,0.42,11.57,1.574,1,1.0
3,2,26,1,1,5,26,46,3,4,4,2,1,1.0,0.52,12.09,2.278,1,1.0
3,2,27,1,1,6,35,24,4,3,4,1,1,2.0,0.59,12.68,7.847,0,2.0
3,2,28,1,2,1,30,43,5,4,4,2,1,2.0,0.77,13.45,6.022,0,2.0
3,2,29,1,2,2,23,6,5,2,2,2,1,2.0,0.81,14.26,4.405,0,1.0
3,2,30,1,2,3,50,52,5,4,4,2,1,2.0,0.48,14.74,1.942,0,1.0
3,2,31,1,2,4,8,26,3,2,3,1,1,1.0,0.16,14.9,6.262,1,2.0
3,2,32,1,2,5,21,23,4,5,5,2,1,2.0,0.73,15.63,3.783,0,2.0
3,2,33,1,1,1,2,16,3,5,5,2,1,1.0,0.29,15.92,4.565,1,1.0
3,2,34,1,1,2,50,46,4,3,3,2,1,1.0,0.41,16.33,4.182,1,1.0
3,2,35,1,1,3,33,27,2,3,3,2,1,1.0,0.43,16.76,2.325,1,1.0
3,2,36,1,1,4,37,21,3,4,4,2,1,1.0,0.42,17.18,1.911,1,1.0
3,2,37,1,2,1,48,40,2,4,4,2,1,2.0,0.82,18.0,3.271,0,1.0
3,2,38,1,1,1,31,6,3,4,4,2,1,1.0,0.41,18.41,2.648,1,1.0
3,2,39,1,1,2,20,33,4,3,4,1,1,2.0,0.81,19.22,5.99,0,2.0
3,2,40,1,2,1,46,21,4,2,2,2,1,2.0,0.53,19.75,2.391,0,2.0
3,2,41,1,2,2,41,5,3,4,4,2,1,2.0,0.66,20.41,2.31,0,1.0
3,2,42,1,2,3,53,35,5,3,5,1,1,1.0,0.31,20.72,4.774,1,2.0
3,2,43,1,1,1,49,54,4,3,4,1,1,2.0,0.48,21.2,3.574,0,1.0
3,2,44,1,1,2,27,8,5,2,2,2,1,1.0,0.36,21.56,2.95,1,2.0
3,2,45,1,1,3,1,16,3,2,2,2,1,1.0,0.21,21.77,5.031,1,1.0
3,2,46,1,1,4,30,25,2,3,2,1,1,2.0,0.83,22.6,1.51,0,2.0
3,2,47,1,2,1,44,16,2,5,5,2,1,2.0,0.57,23.17,5.702,0,2.0
3,2,48,1,2,2,28,54,3,5,3,1,1,1.0,0.4,23.57,5.158,1,2.0
3,2,49,1,2,3,34,32,3,5,5,2,1,2.0,0.69,24.26,4.647,0,2.0
3,2,50,1,1,1,30,12,2,4,4,2,1,1.0,0.22,24.48,2.791,1,1.0
3,2,51,1,1,2,1,54,2,5,2,1,1,2.0,0.41,24.89,6.679,0,2.0
3,2,52,1,1,3,40,12,2,3,2,1,1,2.0,0.66,25.55,5.799,0,1.0
3,2,53,1,2,1,49,19,2,4,4,2,1,2.0,0.55,26.1,1.974,0,2.0
3,2,54,1,2,2,31,51,3,4,4,2,1,2.0,0.74,26.84,5.526,0,1.0
3,2,55,1,2,3,9,44,5,3,5,1,1,1.0,0.39,27.23,2.614,1,2.0
3,2,56,1,2,4,52,31,3,5,5,2,1,2.0,0.87,28.1,1.702,0,2.0
3,2,57,1,2,5,26,13,5,4,5,1,1,1.0,0.4,28.5,3.126,1,2.0
3,2,58,1,2,6,1,21,4,5,4,1,1,1.0,0.26,28.76,7.782,1,1.0
3,2,59,1,1,1,12,33,3,4,3,1,1,2.0,0.71,29.47,1.957,0,1.0
3,2,60,1,1,2,9,36,5,2,2,2,1,1.0,0.21,29.68,4.549,1,2.0
3,2,61,1,1,3,22,45,3,5,3,1,1,2.0,0.66,30.34,7.16,0,2.0
3,2,62,1,1,4,39,34,4,2,4,1,1,2.0,0.66,31.0,4.646,0,1.0
3,2,63,1,1,5,29,2,2,4,2,1,1,2.0,0.67,31.67,1.255,0,1.0
3,2,64,1,2,1,39,17,2,5,2,1,1,1.0,0.3,31.97,2.359,1,1.0
3,2,65,1,2,2,29,40,5,3,5,1,1,1.0,0.46,32.43,3.174,1,1.0
3,2,66,1,2,3,47,13,4,3,3,2,1,2.0,0.45,32.88,5.56,0,2.0
3,2,67,1,2,4,22,34,3,5,5,2,1,2.0,0.72,33.6,3.814,0,1.0
3,2,68,1,1,1,42,41,5,2,2,2,1,1.0,0.44,34.04,3.143,1,1.0
3,2,69,1,1,2,6,13,3,2,2,2,1,1.0,0.42,34.46,7.687,1,1.0
3,2,71,1,2,2,5,39,2,4,4,2,1,2.0,0.74,35.2,4.443,0,
3,2,72,1,1,1,54,7,4,5,4,1,1,2.0,0.67,35.87,7.446,0,2.0
3,2,73,1,1,2,3,54,3,2,3,1,1,2.0,0.75,36.62,5.511,0,1.0
3,2,74,1,1,3,22,28,4,5,4,1,1,2.0,0.73,37.35,3.477,0,1.0
3,2,75,1,1,4,8,5,2,3,2,1,1,2.0,0.64,37.99,1.51,0,1.0
3,2,76,1,1,5,42,8,2,4,4,2,1,1.0,0.29,38.28,6.855,1,2.0
3,2,77,1,1,6,24,49,4,2,2,2,1,1.0,0.3,38.58,1.431,1,1.0
3,2,78,1,2,1,9,41,4,3,3,2,1,2.0,0.49,39.07,1.461,0,1.0
3,2,79,1,1,1,17,53,2,5,2,1,1,2.0,0.64,39.71,5.175,0,2.0
3,2,80,1,2,1,2,18,4,3,3,2,1,2.0,0.68,40.39,5.317,0,2.0
3,2,81,1,2,2,21,17,2,3,2,1,1,1.0,0.37,40.76,3.141,1,2.0
3,2,82,1,2,3,14,26,5,3,3,2,1,2.0,0.84,41.6,4.167,0,2.0
3,2,83,1,2,4,17,7,4,2,4,1,1,1.0,0.29,41.89,2.774,1,2.0
3,2,84,1,2,5,28,16,2,5,2,1,1,1.0,0.41,42.3,5.175,1,1.0
3,2,1,2,1,1,35,40,2,3,2,1,1,2.0,0.76,43.06,6.328,0,
3,2,2,2,1,2,4,36,5,2,5,1,1,2.0,0.78,43.84,6.02,0,1.0
3,2,3,2,1,3,3,12,2,5,5,2,1,1.0,0.22,44.06,1.349,1,2.0
3,2,4,2,1,4,35,4,4,3,3,2,1,1.0,0.36,44.42,3.287,1,1.0
3,2,5,2,2,1,43,22,5,3,3,2,1,2.0,0.7,45.12,3.688,0,1.0
3,2,6,2,2,2,37,7,4,5,5,2,1,2.0,0.55,45.67,2.006,0,1.0
3,2,7,2,2,3,33,19,3,5,5,2,1,2.0,0.58,46.25,3.574,0,1.0
3,2,8,2,2,4,36,13,3,2,3,1,1,1.0,0.46,46.71,3.446,1,2.0
3,2,9,2,2,5,20,33,3,5,3,1,1,1.0,0.32,47.03,2.823,1,1.0
3,2,10,2,2,6,45,19,3,2,2,2,1,2.0,0.71,47.74,3.878,0,2.0
3,2,11,2,1,1,46,38,5,3,5,1,1,2.0,0.68,48.42,8.566,0,2.0
3,2,12,2,1,2,14,23,5,4,4,2,1,1.0,0.26,48.68,4.55,1,2.0
3,2,13,2,1,3,5,22,3,5,5,2,1,1.0,0.27,48.95,2.278,1,1.0
3,2,14,2,1,4,20,23,4,3,3,2,1,1.0,0.39,49.34,2.774,1,1.0
3,2,15,2,1,5,17,42,2,5,2,1,1,2.0,0.56,49.9,3.622,0,2.0
3,2,16,2,1,6,40,10,4,2,4,1,1,2.0,0.76,50.66,3.622,0,1.0
3,2,17,2,2,1,41,32,2,5,2,1,1,1.0,0.4,51.06,2.07,1,1.0
3,2,18,2,1,1,36,34,4,5,5,2,1,1.0,0.24,51.3,2.854,1,2.0
3,2,19,2,1,2,43,20,2,3,3,2,1,1.0,0.3,51.6,7.319,1,1.0
3,2,20,2,2,1,42,23,5,2,2,2,1,2.0,0.53,52.13,1.59,0,1.0
3,2,21,2,2,2,44,21,5,4,4,2,1,2.0,0.41,52.54,3.064,0,1.0
3,2,22,2,2,3,47,39,5,4,5,1,1,1.0,0.45,52.99,4.374,1,2.0
3,2,23,2,2,4,30,12,3,5,5,2,1,2.0,0.61,53.6,5.447,0,2.0
3,2,24,2,1,1,46,17,5,3,5,1,1,2.0,0.71,54.31,3.447,0,2.0
3,2,25,2,1,2,18,23,2,3,2,1,1,2.0,0.69,55.0,4.231,0,1.0
3,2,27,2,2,1,13,51,3,2,2,2,1,2.0,0.55,55.89,1.462,0,1.0
3,2,28,2,2,2,45,10,2,4,4,2,1,2.0,0.56,56.45,2.488,0,1.0
3,2,29,2,2,3,21,25,2,5,5,2,1,2.0,0.62,57.07,1.397,0,1.0
3,2,30,2,2,4,45,17,2,4,4,2,1,2.0,0.53,57.6,2.055,0,1.0
3,2,31,2,2,5,19,28,4,3,3,2,1,2.0,0.54,58.14,2.327,0,1.0
3,2,32,2,1,1,37,41,2,5,5,2,1,1.0,0.51,58.65,2.694,1,1.0
3,2,33,2,2,1,54,16,3,4,4,2,1,2.0,0.67,59.32,2.838,0,1.0
3,2,34,2,2,2,10,8,5,2,5,1,1,1.0,0.19,59.51,6.918,1,2.0
3,2,35,2,1,1,43,31,3,2,2,2,1,1.0,0.33,59.84,1.349,1,2.0
3,2,36,2,1,2,47,3,2,4,4,2,1,1.0,0.2,60.04,3.383,1,1.0
3,2,37,2,1,3,8,19,4,5,5,2,1,1.0,0.17,60.21,1.623,1,1.0
3,2,38,2,1,4,1,15,5,2,2,2,1,1.0,0.3,60.51,2.358,1,1.0
3,2,39,2,1,5,49,41,2,4,4,2,1,1.0,0.45,60.96,2.071,1,1.0
3,2,40,2,2,1,51,47,5,4,4,2,1,2.0,0.68,61.64,5.781,0,1.0
3,2,41,2,2,2,7,27,4,2,4,1,1,1.0,0.41,62.05,2.775,1,2.0
3,2,42,2,2,3,44,39,5,3,5,1,1,1.0,0.2,62.25,3.4,1,1.0
3,2,43,2,1,1,30,11,4,2,4,1,1,2.0,0.61,62.86,3.653,0,1.0
3,2,44,2,1,2,34,38,5,4,4,2,1,1.0,0.3,63.16,2.277,1,2.0
3,2,45,2,1,3,38,27,3,4,3,1,1,2.0,0.52,63.68,4.535,0,2.0
3,2,46,2,1,4,24,40,4,5,4,1,1,2.0,0.51,64.19,3.975,0,1.0
3,2,47,2,1,5,36,29,4,5,4,1,1,2.0,0.78,64.97,3.846,0,1.0
3,2,48,2,1,6,24,15,4,5,4,1,1,2.0,0.67,65.64,5.429,0,1.0
3,2,49,2,2,1,34,37,3,5,3,1,1,1.0,0.26,65.9,2.359,1,1.0
3,2,50,2,2,2,47,52,2,4,4,2,1,2.0,0.76,66.66,4.79,0,2.0
3,2,51,2,1,1,49,44,5,3,3,2,1,1.0,0.36,67.02,3.959,1,1.0
3,2,52,2,2,1,38,21,5,2,2,2,1,2.0,0.55,67.57,5.718,0,1.0
3,2,53,2,2,2,6,54,4,2,2,2,1,2.0,0.82,68.39,1.878,0,1.0
3,2,54,2,2,3,36,14,5,2,2,2,1,2.0,0.7,69.09,0.967,0,1.0
3,2,55,2,1,1,30,54,3,5,5,2,1,1.0,0.51,69.6,9.302,1,1.0
3,2,56,2,1,2,31,17,2,3,2,1,1,2.0,0.8,70.4,1.143,0,2.0
3,2,57,2,1,3,15,28,2,5,2,1,1,2.0,0.59,70.99,5.542,0,1.0
3,2,58,2,1,4,23,30,3,4,3,1,1,2.0,0.51,71.5,4.503,0,1.0
3,2,59,2,1,5,40,35,2,3,2,1,1,2.0,0.66,72.16,3.989,0,1.0
3,2,60,2,2,1,36,54,3,4,4,2,1,2.0,0.63,72.79,3.511,0,2.0
3,2,61,2,2,2,5,53,2,3,3,2,1,2.0,0.57,73.36,4.26,0,1.0
3,2,62,2,2,3,42,25,2,4,4,2,1,2.0,0.73,74.09,3.351,0,1.0
3,2,63,2,2,4,49,17,3,4,4,2,1,2.0,0.84,74.93,3.03,0,1.0
3,2,64,2,2,5,35,34,4,3,3,2,1,2.0,0.6,75.53,4.836,0,1.0
3,2,65,2,1,1,1,29,4,2,2,2,1,1.0,0.23,75.76,1.125,1,1.0
3,2,66,2,1,2,50,20,5,4,5,1,1,2.0,0.64,76.4,5.446,0,2.0
3,2,67,2,1,3,9,12,4,2,2,2,1,1.0,0.41,76.81,6.518,1,2.0
3,2,68,2,2,1,43,34,3,4,3,1,1,1.0,0.23,77.04,3.877,1,2.0
3,2,69,2,1,1,20,29,4,2,2,2,1,1.0,0.19,77.23,1.302,1,2.0
3,2,70,2,1,2,34,14,5,3,5,1,1,2.0,0.65,77.88,6.679,0,2.0
3,2,71,2,2,1,13,54,4,3,3,2,1,2.0,0.66,78.54,7.431,0,2.0
3,2,72,2,2,2,40,31,3,2,2,2,1,2.0,0.72,79.26,1.495,0,1.0
3,2,73,2,2,3,18,4,5,2,5,1,1,1.0,0.26,79.52,6.166,1,2.0
3,2,74,2,2,4,2,22,5,4,4,2,1,2.0,0.65,80.17,4.276,0,2.0
3,2,75,2,1,1,45,50,2,3,3,2,1,1.0,0.28,80.45,3.399,1,1.0
3,2,76,2,1,2,4,2,4,5,4,1,1,2.0,0.66,81.11,7.622,0,2.0
3,2,77,2,1,3,30,32,2,5,5,2,1,1.0,0.51,81.62,3.094,1,2.0
3,2,78,2,1,4,38,30,3,2,3,1,1,2.0,0.6,82.22,7.318,0,2.0
3,2,79,2,2,1,1,21,3,2,2,2,1,2.0,0.51,82.73,5.991,0,2.0
3,2,80,2,2,2,44,34,4,3,4,1,1,1.0,0.39,83.12,8.422,1,2.0
3,2,81,2,2,3,52,19,4,3,4,1,1,1.0,0.23,83.35,1.543,1,1.0
3,2,82,2,2,4,25,1,5,3,3,2,1,2.0,0.67,84.02,3.335,0,2.0
3,2,83,2,2,5,48,36,3,4,3,1,1,1.0,0.26,84.28,4.118,1,2.0
3,2,84,2,2,6,48,42,3,5,3,1,1,1.0,0.4,84.68,3.557,1,1.0
3,2,1,3,2,1,32,25,5,2,2,2,1,2.0,0.73,85.41,2.167,0,
3,2,2,3,2,2,42,54,2,4,2,1,1,1.0,0.31,85.72,3.397,1,2.0
3,2,3,3,2,3,35,42,4,5,4,1,1,1.0,0.09,85.81,3.653,1,1.0
3,2,4,3,2,4,5,9,4,5,5,2,1,2.0,0.68,86.49,4.279,0,2.0
3,2,5,3,2,5,33,41,4,3,3,2,1,2.0,0.85,87.34,7.99,0,1.0
3,2,6,3,1,1,32,30,2,5,2,1,1,2.0,0.79,88.13,2.279,0,2.0
3,2,7,3,1,2,20,25,3,5,3,1,1,2.0,0.48,88.61,3.207,0,1.0
3,2,8,3,1,3,2,23,4,2,2,2,1,1.0,0.32,88.93,5.623,1,2.0
3,2,9,3,1,4,4,45,2,4,4,2,1,1.0,0.25,89.18,7.206,1,1.0
3,2,10,3,1,5,13,16,4,3,3,2,1,1.0,0.21,89.39,3.51,1,1.0
3,2,11,3,2,1,27,24,5,4,5,1,1,1.0,0.19,89.58,1.67,1,2.0
3,2,12,3,1,1,35,49,5,3,3,2,1,1.0,0.37,89.95,1.751,1,2.0
3,2,13,3,1,2,45,39,3,4,4,2,1,1.0,0.28,90.23,3.717,1,1.0
3,2,14,3,1,3,33,38,5,2,2,2,1,1.0,0.34,90.57,2.455,1,1.0
3,2,15,3,1,4,53,19,3,5,5,2,1,1.0,0.29,90.86,2.582,1,1.0
3,2,16,3,1,5,8,24,2,3,2,1,1,2.0,0.61,91.47,1.862,0,2.0
3,2,17,3,1,6,27,1,4,3,4,1,1,2.0,0.71,92.18,2.391,0,1.0
3,2,18,3,2,1,14,41,5,2,5,1,1,1.0,0.42,92.6,2.503,1,1.0
3,2,19,3,2,2,27,50,3,4,3,1,1,1.0,0.58,93.18,3.767,1,1.0
3,2,20,3,2,3,39,52,2,4,2,1,1,1.0,0.17,93.35,3.255,1,1.0
3,2,21,3,2,4,15,14,5,2,5,1,1,1.0,0.21,93.56,2.615,1,1.0
3,2,22,3,2,5,20,40,3,5,3,1,1,1.0,0.46,94.02,2.566,1,1.0
3,2,23,3,2,6,26,19,5,4,5,1,1,1.0,0.29,94.31,1.446,1,1.0
3,2,24,3,1,1,30,18,3,5,3,1,1,2.0,0.5,94.81,1.991,0,1.0
3,2,25,3,1,2,43,18,3,2,3,1,1,2.0,0.7,95.51,2.133,0,1.0
3,2,26,3,2,1,50,9,4,2,4,1,1,1.0,0.52,96.03,3.462,1,1.0
3,2,27,3,2,2,40,51,2,5,5,2,1,2.0,0.75,96.78,1.462,0,2.0
3,2,28,3,2,3,41,23,4,2,2,2,1,2.0,0.9,97.68,2.006,0,1.0
3,2,29,3,2,4,34,23,4,3,3,2,1,2.0,0.73,98.41,4.918,0,1.0
3,2,30,3,1,1,4,41,4,3,3,2,1,1.0,0.55,98.96,3.478,1,1.0
3,2,31,3,1,2,4,41,2,5,5,2,1,1.0,0.29,99.25,2.566,1,1.0
3,2,32,3,1,3,8,49,3,4,4,2,1,1.0,0.2,99.45,1.573,1,1.0
3,2,33,3,1,4,5,2,5,2,2,2,1,1.0,0.31,99.76,1.894,1,1.0
3,2,34,3,2,1,17,48,2,4,4,2,1,2.0,0.81,100.57,2.615,0,1.0
3,2,35,3,2,2,20,15,2,5,5,2,1,2.0,0.54,101.11,0.966,0,1.0
3,2,36,3,2,3,12,46,3,5,5,2,1,2.0,0.74,101.85,1.19,0,1.0
3,2,37,3,1,1,43,3,4,5,5,2,1,1.0,0.26,102.11,2.486,1,1.0
3,2,38,3,2,1,41,8,3,2,2,2,1,2.0,0.73,102.84,1.559,0,1.0
3,2,39,3,2,2,22,6,2,5,5,2,1,2.0,0.54,103.38,1.814,0,1.0
3,2,40,3,1,1,7,10,2,4,4,2,1,1.0,0.34,103.72,1.096,1,1.0
3,2,41,3,1,2,5,17,4,2,2,2,1,1.0,0.1,103.82,1.478,1,1.0
3,2,42,3,1,3,49,50,2,3,2,1,1,2.0,0.61,104.43,1.271,0,2.0
3,2,43,3,2,1,36,2,2,3,2,1,1,1.0,0.39,104.82,2.102,1,1.0
3,2,44,3,2,2,29,20,3,2,2,2,1,2.0,0.63,105.45,2.229,0,2.0
3,2,45,3,2,3,24,35,4,5,5,2,1,2.0,0.81,106.26,1.767,0,1.0
3,2,46,3,2,4,49,52,5,4,4,2,1,2.0,0.59,106.85,1.11,0,1.0
3,2,47,3,1,1,23,19,3,4,3,1,1,2.0,0.39,107.24,2.805,0,2.0
3,2,48,3,2,1,51,15,5,4,5,1,1,1.0,0.19,107.43,3.285,1,1.0
3,2,49,3,2,2,12,54,5,2,2,2,1,2.0,0.79,108.22,0.902,0,2.0
3,2,50,3,2,3,23,12,5,3,3,2,1,2.0,0.65,108.87,5.431,0,1.0
3,2,51,3,1,1,23,19,2,4,2,1,1,2.0,0.71,109.58,1.846,0,2.0
3,2,52,3,1,2,14,31,4,3,4,1,1,2.0,0.78,110.36,1.318,0,1.0
3,2,53,3,2,1,4,34,2,5,2,1,1,1.0,0.08,110.44,0.904,1,1.0
3,2,54,3,2,2,8,10,5,4,5,1,1,1.0,0.26,110.7,0.997,1,1.0
3,2,55,3,2,3,4,10,4,5,4,1,1,1.0,0.25,110.95,2.36,1,1.0
3,2,56,3,2,4,15,49,3,4,3,1,1,1.0,0.21,111.16,2.102,1,1.0
3,2,57,3,2,5,36,21,3,2,3,1,1,1.0,0.31,111.47,1.767,1,1.0
3,2,58,3,2,6,37,42,4,2,2,2,1,2.0,0.85,112.32,2.567,0,2.0
3,2,59,3,1,1,41,1,2,3,3,2,1,1.0,0.33,112.65,1.926,1,1.0
3,2,60,3,1,2,31,49,2,3,3,2,1,1.0,0.48,113.13,1.799,1,1.0
3,2,61,3,1,3,2,43,3,2,2,2,1,1.0,0.25,113.38,1.862,1,1.0
3,2,62,3,2,1,51,36,5,2,2,2,1,2.0,0.67,114.05,2.453,0,1.0
3,2,63,3,1,1,41,48,3,5,5,2,1,1.0,0.24,114.29,0.838,1,1.0
3,2,64,3,1,2,9,7,2,5,5,2,1,1.0,0.4,114.69,2.087,1,1.0
3,2,65,3,1,3,22,23,4,2,2,2,1,1.0,0.3,114.99,2.967,1,1.0
3,2,66,3,1,4,52,40,3,2,3,1,1,2.0,0.72,115.71,1.174,0,2.0
3,2,67,3,2,1,23,47,3,2,3,1,1,1.0,0.41,116.12,1.143,1,1.0
3,2,68,3,2,2,27,21,4,3,4,1,1,1.0,0.32,116.44,2.806,1,1.0
3,2,69,3,2,3,52,31,2,3,2,1,1,1.0,0.44,116.88,0.758,1,1.0
3,2,70,3,2,4,8,41,4,2,4,1,1,1.0,0.61,117.49,1.575,1,1.0
3,2,71,3,2,5,37,15,3,4,3,1,1,1.0,0.39,117.88,2.119,1,1.0
3,2,72,3,1,1,28,23,5,3,5,1,1,2.0,0.67,118.55,1.653,0,1.0
3,2,73,3,1,2,38,32,4,5,5,2,1,1.0,0.44,118.99,1.525,1,2.0
3,2,74,3,1,3,28,46,5,4,4,2,1,1.0,0.34,119.33,2.725,1,1.0
3,2,75,3,1,4,50,42,2,3,2,1,1,2.0,0.54,119.87,3.127,0,2.0
3,2,76,3,1,5,14,29,2,4,4,2,1,1.0,0.39,120.26,7.83,1,2.0
3,2,77,3,1,6,12,16,5,4,5,1,1,2.0,0.67,120.93,5.511,0,2.0
3,2,78,3,2,1,10,30,3,5,5,2,1,2.0,0.63,121.56,1.462,0,2.0
3,2,79,3,2,2,47,9,5,3,3,2,1,2.0,0.82,122.38,2.517,0,1.0
3,2,80,3,1,1,10,17,5,3,3,2,1,1.0,0.55,122.93,1.542,1,1.0
3,2,81,3,1,2,26,4,5,3,3,2,1,1.0,0.27,123.2,1.014,1,1.0
3,2,82,3,1,3,48,53,4,5,5,2,1,1.0,0.35,123.55,0.902,1,1.0
3,2,83,3,1,4,35,37,5,3,3,2,1,1.0,0.24,123.79,2.582,1,1.0
3,2,84,3,1,5,2,44,3,4,4,2,1,1.0,0.41,124.2,1.559,1,1.0
4,1,1,1,2,1,42,24,4,5,4,1,1,2.0,0.62,0.62,1.757,1,
4,1,2,1,1,1,35,10,5,2,2,2,1,2.0,0.47,1.09,3.217,1,2.0
4,1,3,1,1,2,11,32,4,3,4,1,1,1.0,0.35,1.44,2.818,0,2.0
4,1,4,1,1,3,2,46,5,4,4,2,1,2.0,0.7,2.14,5.139,1,2.0
4,1,5,1,2,1,47,6,4,2,4,1,1,2.0,0.53,2.67,2.018,1,2.0
4,1,6,1,2,2,21,39,5,2,2,2,1,1.0,0.47,3.14,2.399,0,2.0
4,1,7,1,1,1,23,9,4,2,2,2,1,2.0,0.81,3.95,1.063,1,1.0
4,1,8,1,1,2,47,8,4,5,5,2,1,2.0,0.66,4.61,3.504,1,1.0
4,1,9,1,1,3,12,18,2,5,2,1,1,1.0,0.37,4.98,3.726,0,2.0
4,1,10,1,1,4,5,31,4,2,4,1,1,1.0,0.35,5.33,1.521,0,1.0
4,1,11,1,2,1,26,47,3,4,3,1,1,2.0,0.65,5.98,3.537,1,1.0
4,1,12,1,2,2,39,37,4,3,3,2,1,1.0,0.42,6.4,3.136,0,2.0
4,1,13,1,2,3,36,25,2,4,2,1,1,2.0,0.6,7.0,1.996,1,2.0
4,1,14,1,2,4,5,3,2,5,2,1,1,2.0,0.92,7.92,1.214,1,1.0
4,1,15,1,2,5,52,25,3,5,3,1,1,2.0,0.65,8.57,5.633,1,1.0
4,1,16,1,1,1,44,38,5,3,3,2,1,2.0,0.68,9.25,1.922,1,2.0
4,1,17,1,1,2,37,28,3,5,3,1,1,1.0,0.46,9.71,2.285,0,2.0
4,1,18,1,1,3,43,12,4,5,4,1,1,1.0,0.34,10.05,5.3,0,1.0
4,1,19,1,1,4,25,38,5,4,4,2,1,2.0,0.66,10.71,3.298,1,2.0
4,1,20,1,1,5,40,39,5,4,5,1,1,1.0,0.23,10.94,2.084,0,2.0
4,1,21,1,2,1,48,5,5,2,2,2,1,1.0,0.37,11.31,1.549,0,2.0
4,1,22,1,2,2,26,3,2,3,2,1,1,2.0,0.51,11.82,2.728,1,2.0
4,1,23,1,2,3,28,1,3,4,4,2,1,1.0,0.42,12.24,2.24,0,2.0
4,1,24,1,2,4,45,54,2,5,5,2,1,1.0,0.52,12.76,4.483,0,1.0
4,1,25,1,2,5,39,49,4,2,4,1,1,2.0,0.59,13.35,5.29,1,2.0
4,1,26,1,2,6,6,11,5,3,5,1,1,2.0,0.77,14.12,2.531,1,1.0
4,1,27,1,1,1,45,17,4,3,3,2,1,2.0,0.81,14.93,1.955,1,2.0
4,1,28,1,1,2,47,18,4,2,2,2,1,2.0,0.48,15.41,1.707,1,1.0
4,1,30,1,2,2,32,4,3,4,4,2,1,1.0,0.4,16.31,1.923,0,2.0
4,1,31,1,2,3,22,46,2,4,4,2,1,1.0,0.29,16.6,1.439,0,1.0
4,1,32,1,2,4,5,19,2,3,2,1,1,2.0,0.75,17.35,4.033,1,2.0
4,1,33,1,1,1,2,50,5,4,4,2,1,2.0,0.76,18.11,1.701,1,2.0
4,1,34,1,1,2,18,47,5,4,4,2,1,2.0,0.75,18.86,1.492,1,1.0
4,1,35,1,1,3,12,51,2,4,2,1,1,1.0,0.49,19.35,3.311,0,2.0
4,1,36,1,1,4,3,41,3,2,2,2,1,2.0,0.75,20.1,4.578,1,2.0
4,1,37,1,1,5,20,27,5,3,5,1,1,1.0,0.47,20.57,4.946,0,2.0
4,1,38,1,1,6,3,43,4,2,2,2,1,2.0,0.53,21.1,4.363,1,2.0
4,1,39,1,2,1,49,23,4,2,4,1,1,2.0,0.66,21.76,3.716,1,2.0
4,1,40,1,2,2,46,20,5,2,2,2,1,1.0,0.31,22.07,1.699,0,2.0
4,1,41,1,2,3,34,50,2,3,2,1,1,2.0,0.48,22.55,2.224,1,2.0
4,1,42,1,1,1,41,46,3,5,5,2,1,2.0,0.7,23.25,4.803,1,2.0
4,1,43,1,2,1,42,48,2,4,4,2,1,1.0,0.21,23.46,2.771,0,1.0
4,1,44,1,1,1,17,8,3,2,2,2,1,2.0,0.83,24.29,1.505,1,1.0
4,1,45,1,1,2,5,4,5,2,2,2,1,2.0,0.57,24.86,3.233,1,1.0
4,1,46,1,1,3,9,43,2,5,5,2,1,2.0,0.73,25.59,4.93,1,1.0
4,1,47,1,1,4,37,16,2,5,2,1,1,1.0,0.36,25.95,3.754,0,2.0
4,1,48,1,1,5,39,46,5,3,3,2,1,2.0,0.56,26.51,3.332,1,2.0
4,1,49,1,1,6,45,48,3,5,5,2,1,2.0,0.41,26.92,4.164,1,1.0
4,1,50,1,2,1,42,26,5,3,3,2,1,1.0,0.33,27.25,5.074,0,1.0
4,1,51,1,2,2,34,7,5,3,3,2,1,1.0,0.21,27.46,1.648,0,1.0
4,1,52,1,2,3,37,3,3,4,4,2,1,1.0,0.41,27.87,2.434,0,1.0
4,1,53,1,1,1,25,24,3,2,3,1,1,1.0,0.39,28.26,4.879,0,2.0
4,1,54,1,1,2,1,48,2,3,3,2,1,2.0,0.87,29.13,1.394,1,2.0
4,1,55,1,1,3,8,2,2,3,3,2,1,2.0,0.74,29.87,1.713,1,1.0
4,1,56,1,1,4,41,28,4,3,4,1,1,1.0,0.26,30.13,4.357,0,2.0
4,1,57,1,2,1,20,8,3,4,4,2,1,1.0,0.38,30.51,1.266,0,2.0
4,1,58,1,2,2,45,20,5,4,4,2,1,1.0,0.21,30.72,7.237,0,1.0
4,1,59,1,2,3,27,36,4,5,5,2,1,1.0,0.33,31.05,3.072,0,1.0
4,1,60,1,2,4,10,38,4,3,4,1,1,2.0,0.66,31.71,2.148,1,2.0
4,1,61,1,1,1,15,49,5,3,5,1,1,1.0,0.33,32.04,4.082,0,1.0
4,1,62,1,1,2,4,42,4,3,3,2,1,2.0,0.63,32.67,6.405,1,2.0
4,1,63,1,2,1,48,2,2,4,4,2,1,1.0,0.46,33.13,3.316,0,1.0
4,1,64,1,2,2,36,1,2,5,2,1,1,2.0,0.45,33.58,2.803,1,2.0
4,1,65,1,2,3,22,30,2,4,4,2,1,1.0,0.38,33.96,4.195,0,2.0
4,1,66,1,2,4,22,5,4,3,3,2,1,1.0,0.44,34.4,2.199,0,1.0
4,1,67,1,2,5,45,25,4,5,4,1,1,2.0,0.75,35.15,2.866,1,2.0
4,1,68,1,1,1,19,33,3,4,4,2,1,2.0,0.74,35.89,2.577,1,2.0
4,1,69,1,1,2,9,21,3,5,5,2,1,2.0,0.67,36.56,1.891,1,1.0
4,1,70,1,1,3,10,6,3,4,4,2,1,2.0,0.75,37.31,1.156,1,1.0
4,1,71,1,1,4,15,23,5,4,5,1,1,1.0,0.4,37.71,2.035,0,2.0
4,1,72,1,1,5,39,5,3,5,5,2,1,2.0,0.64,38.35,6.419,1,2.0
4,1,73,1,2,1,7,3,3,5,5,2,1,1.0,0.29,38.64,1.264,0,1.0
4,1,74,1,2,2,49,14,3,2,2,2,1,1.0,0.3,38.94,5.812,0,1.0
4,1,75,1,1,1,21,10,2,3,3,2,1,2.0,0.49,39.43,2.371,1,1.0
4,1,76,1,1,2,54,50,2,5,5,2,1,2.0,0.64,40.07,2.417,1,1.0
4,1,77,1,1,3,30,46,3,2,2,2,1,2.0,0.68,40.75,1.234,1,1.0
4,1,78,1,2,1,27,51,3,2,2,2,1,1.0,0.37,41.12,2.02,0,1.0
4,1,79,1,2,2,43,42,5,2,5,1,1,2.0,0.84,41.96,3.554,1,2.0
4,1,80,1,2,3,14,2,5,2,2,2,1,1.0,0.29,42.25,2.705,0,2.0
4,1,81,1,2,4,25,36,2,4,2,1,1,2.0,0.74,42.99,1.411,1,2.0
4,1,82,1,2,5,33,13,2,3,3,2,1,1.0,0.43,43.42,2.599,0,2.0
4,1,83,1,2,6,37,21,4,5,4,1,1,2.0,0.78,44.2,3.504,1,2.0
4,1,84,1,1,1,14,53,3,2,2,2,1,2.0,0.55,44.75,2.754,1,2.0
4,1,1,2,1,1,8,40,2,3,2,1,1,1.0,0.36,45.11,1.425,0,
4,1,2,2,1,2,52,10,4,5,5,2,1,2.0,0.7,45.81,1.817,1,2.0
4,1,3,2,2,1,15,36,3,2,3,1,1,2.0,0.55,46.36,5.89,1,2.0
4,1,4,2,2,2,51,12,2,4,4,2,1,1.0,0.25,46.61,1.569,0,2.0
4,1,5,2,2,3,20,7,5,4,4,2,1,1.0,0.46,47.07,3.52,0,1.0
4,1,6,2,2,4,1,54,5,3,5,1,1,2.0,0.65,47.72,3.712,1,2.0
4,1,7,2,2,5,53,13,2,3,2,1,1,2.0,0.71,48.43,3.072,1,1.0
4,1,8,2,1,1,5,13,4,2,2,2,1,2.0,0.68,49.11,1.922,1,2.0
4,1,9,2,1,2,20,11,3,5,5,2,1,2.0,0.59,49.7,1.908,1,1.0
4,1,10,2,1,3,5,28,5,2,5,1,1,1.0,0.27,49.97,5.028,0,2.0
4,1,11,2,2,1,38,29,3,2,2,2,1,1.0,0.39,50.36,8.099,0,2.0
4,1,12,2,2,2,18,22,5,3,5,1,1,2.0,0.56,50.92,3.604,1,2.0
4,1,13,2,2,3,8,44,3,2,3,1,1,2.0,0.76,51.68,5.254,1,1.0
4,1,14,2,2,4,50,29,3,5,5,2,1,1.0,0.4,52.08,3.252,0,2.0
4,1,15,2,2,5,27,54,4,3,3,2,1,1.0,0.24,52.32,3.475,0,1.0
4,1,16,2,2,6,39,12,3,4,4,2,1,1.0,0.3,52.62,1.107,0,1.0
4,1,17,2,1,1,46,41,5,4,4,2,1,2.0,0.53,53.15,2.576,1,1.0
4,1,18,2,2,1,23,4,2,3,2,1,1,2.0,0.41,53.56,4.69,1,2.0
4,1,19,2,2,2,2,25,5,3,3,2,1,1.0,0.45,54.01,2.418,0,2.0
4,1,20,2,2,3,46,35,2,4,4,2,1,1.0,0.27,54.28,5.026,0,1.0
4,1,21,2,1,1,8,30,5,4,4,2,1,2.0,0.71,54.99,4.258,1,1.0
4,1,22,2,1,2,46,21,3,2,3,1,1,1.0,0.36,55.35,1.762,0,2.0
4,1,23,2,1,3,31,43,3,2,2,2,1,2.0,0.67,56.02,4.21,1,2.0
4,1,24,2,1,4,4,7,5,4,5,1,1,1.0,0.21,56.23,6.881,0,2.0
4,1,25,2,2,1,35,31,5,2,5,1,1,2.0,0.56,56.79,4.416,1,1.0
4,1,26,2,2,2,13,43,4,2,4,1,1,2.0,0.62,57.41,6.74,1,1.0
4,1,27,2,1,1,29,14,5,4,4,2,1,2.0,0.53,57.94,3.715,1,2.0
4,1,28,2,1,2,30,42,4,3,4,1,1,1.0,0.21,58.15,4.019,0,2.0
4,1,29,2,1,3,43,31,2,5,5,2,1,2.0,0.84,58.99,5.558,1,2.0
4,1,30,2,1,4,51,38,4,5,5,2,1,2.0,0.67,59.66,3.46,1,1.0
4,1,31,2,1,5,21,10,3,5,5,2,1,2.0,0.52,60.18,1.585,1,1.0
4,1,32,2,1,6,32,24,2,3,3,2,1,2.0,0.66,60.84,2.484,1,1.0
4,1,33,2,2,1,34,53,4,3,4,1,1,2.0,0.53,61.37,6.9,1,2.0
4,1,34,2,1,1,16,33,3,5,5,2,1,2.0,0.51,61.88,2.513,1,2.0
4,1,35,2,1,2,38,19,2,4,4,2,1,2.0,0.64,62.52,4.594,1,1.0
4,1,36,2,1,3,45,11,5,3,3,2,1,2.0,0.78,63.3,3.187,1,1.0
4,1,37,2,1,4,15,32,4,5,5,2,1,2.0,0.68,63.98,2.376,1,1.0
4,1,38,2,1,5,24,5,4,3,3,2,1,2.0,0.74,64.72,2.097,1,1.0
4,1,39,2,2,1,22,9,4,3,3,2,1,1.0,0.2,64.92,1.394,0,1.0
4,1,40,2,2,2,38,28,2,5,2,1,1,2.0,0.61,65.53,6.736,1,2.0
4,1,41,2,2,3,13,1,5,4,4,2,1,1.0,0.3,65.83,4.112,0,2.0
4,1,42,2,2,4,50,35,4,5,5,2,1,1.0,0.19,66.02,4.097,0,1.0
4,1,43,2,1,1,21,51,3,2,2,2,1,2.0,0.51,66.53,2.131,1,1.0
4,1,44,2,1,2,40,28,3,4,4,2,1,2.0,0.78,67.31,2.02,1,1.0
4,1,45,2,2,1,28,40,2,3,2,1,1,2.0,0.67,67.98,1.586,1,2.0
4,1,46,2,2,2,15,44,3,4,3,1,1,2.0,0.59,68.57,5.617,1,1.0
4,1,47,2,2,3,30,6,2,4,4,2,1,1.0,0.43,69.0,5.297,0,2.0
4,1,48,2,2,4,10,25,3,4,4,2,1,1.0,0.36,69.36,6.419,0,1.0
4,1,49,2,1,1,38,12,5,4,4,2,1,2.0,0.55,69.91,2.243,1,1.0
4,1,52,2,1,1,25,18,4,2,2,2,1,2.0,0.84,71.94,2.114,1,2.0
4,1,53,2,1,2,3,9,2,5,5,2,1,2.0,0.8,72.74,2.45,1,1.0
4,1,54,2,1,3,2,45,2,3,2,1,1,1.0,0.25,72.99,3.059,0,2.0
4,1,55,2,1,4,50,24,2,3,2,1,1,1.0,0.18,73.17,5.969,0,1.0
4,1,56,2,2,1,10,51,4,5,4,1,1,2.0,0.66,73.83,1.833,1,1.0
4,1,57,2,1,1,52,10,5,2,2,2,1,2.0,0.63,74.46,2.067,1,2.0
4,1,58,2,1,2,51,22,2,5,5,2,1,2.0,0.57,75.03,6.214,1,1.0
4,1,59,2,1,3,20,24,2,4,4,2,1,2.0,0.73,75.76,2.789,1,1.0
4,1,61,2,1,5,7,8,3,5,5,2,1,2.0,0.6,77.2,4.093,1,1.0
4,1,62,2,1,6,30,31,4,2,4,1,1,1.0,0.23,77.43,2.102,0,2.0
4,1,63,2,2,1,6,29,3,5,5,2,1,1.0,0.3,77.73,2.114,0,2.0
4,1,64,2,2,2,3,54,2,5,5,2,1,1.0,0.41,78.14,4.048,0,1.0
4,1,65,2,2,3,39,49,5,2,2,2,1,1.0,0.23,78.37,2.784,0,1.0
4,1,66,2,1,1,47,45,5,3,3,2,1,2.0,0.53,78.9,1.586,1,1.0
4,1,67,2,1,2,53,41,4,5,5,2,1,2.0,0.65,79.55,3.777,1,1.0
4,1,68,2,1,3,30,53,5,2,2,2,1,2.0,0.66,80.21,2.817,1,1.0
4,1,69,2,1,4,37,13,4,3,3,2,1,2.0,0.72,80.93,3.3,1,1.0
4,1,70,2,1,5,20,48,5,3,3,2,1,2.0,0.6,81.53,1.793,1,1.0
4,1,71,2,2,1,54,23,2,5,2,1,1,2.0,0.65,82.18,2.693,1,2.0
4,1,72,2,2,2,5,47,4,2,2,2,1,1.0,0.28,82.46,1.602,0,2.0
4,1,73,2,2,3,46,27,4,5,5,2,1,1.0,0.32,82.78,1.553,0,1.0
4,1,74,2,2,4,15,26,2,4,4,2,1,1.0,0.51,83.29,2.145,0,1.0
4,1,75,2,2,5,2,19,2,5,2,1,1,2.0,0.6,83.89,4.766,1,2.0
4,1,76,2,2,6,20,28,4,3,3,2,1,1.0,0.17,84.06,2.116,0,2.0
4,1,77,2,1,1,51,35,3,4,4,2,1,2.0,0.72,84.78,2.881,1,1.0
4,1,78,2,1,2,39,43,5,2,5,1,1,1.0,0.23,85.01,7.634,0,2.0
4,1,79,2,1,3,44,2,5,3,5,1,1,1.0,0.34,85.35,4.499,0,1.0
4,1,80,2,2,1,21,42,4,2,2,2,1,1.0,0.26,85.61,5.282,0,2.0
4,1,81,2,2,2,37,40,3,2,3,1,1,2.0,0.73,86.34,3.812,1,2.0
4,1,82,2,2,3,50,29,3,4,4,2,1,1.0,0.4,86.74,1.73,0,2.0
4,1,83,2,2,4,32,10,4,2,2,2,1,1.0,0.31,87.05,1.603,0,1.0
4,1,84,2,2,5,17,27,5,2,2,2,1,1.0,0.09,87.14,1.763,0,1.0
4,1,1,3,2,1,23,40,2,3,3,2,1,1.0,0.35,87.49,5.03,0,
4,1,2,3,2,2,38,28,2,3,2,1,1,2.0,0.85,88.34,2.455,1,2.0
4,1,3,3,2,3,48,29,2,3,3,2,1,1.0,0.45,88.79,3.682,0,2.0
4,1,4,3,2,4,33,50,4,3,4,1,1,2.0,0.48,89.27,4.61,1,2.0
4,1,5,3,2,5,6,45,2,5,2,1,1,2.0,0.66,89.93,4.966,1,1.0
4,1,6,3,2,6,19,10,3,2,3,1,1,2.0,0.59,90.52,1.795,1,1.0
4,1,7,3,1,1,49,3,4,5,5,2,1,2.0,0.55,91.07,2.001,1,2.0
4,1,8,3,1,2,43,29,4,2,2,2,1,2.0,0.52,91.59,4.707,1,1.0
4,1,9,3,1,3,23,51,4,3,3,2,1,2.0,0.7,92.29,4.706,1,1.0
4,1,10,3,1,4,13,32,2,3,2,1,1,1.0,0.28,92.57,4.131,0,2.0
4,1,11,3,2,1,49,50,5,2,2,2,1,1.0,0.34,92.91,2.69,0,2.0
4,1,12,3,2,2,1,40,4,3,3,2,1,1.0,0.29,93.2,5.202,0,1.0
4,1,13,3,2,3,18,17,2,5,5,2,1,1.0,0.28,93.48,3.522,0,1.0
4,1,14,3,2,4,8,5,3,4,4,2,1,1.0,0.38,93.86,4.499,0,1.0
4,1,15,3,2,5,5,28,4,3,3,2,1,1.0,0.42,94.28,3.026,0,1.0
4,1,16,3,1,1,8,48,3,2,2,2,1,2.0,0.92,95.2,1.249,1,1.0
4,1,17,3,2,1,2,45,5,2,2,2,1,1.0,0.17,95.37,1.395,0,1.0
4,1,18,3,2,2,27,33,3,5,3,1,1,2.0,0.55,95.92,5.359,1,2.0
4,1,19,3,2,3,17,51,2,4,2,1,1,2.0,0.79,96.71,2.754,1,1.0
4,1,20,3,1,1,53,54,2,4,4,2,1,2.0,0.62,97.33,4.146,1,2.0
4,1,21,3,1,2,12,19,2,5,2,1,1,1.0,0.17,97.5,2.321,0,2.0
4,1,22,3,1,3,5,31,2,5,2,1,1,1.0,0.37,97.87,2.627,0,1.0
4,1,23,3,1,4,21,15,4,5,4,1,1,1.0,0.52,98.39,4.994,0,1.0
4,1,24,3,1,5,29,14,4,5,5,2,1,2.0,0.75,99.14,4.402,1,2.0
4,1,25,3,2,1,42,39,2,4,4,2,1,1.0,0.56,99.7,2.56,0,1.0
4,1,26,3,2,2,39,22,4,5,4,1,1,2.0,0.73,100.43,8.451,1,2.0
4,1,27,3,1,1,16,31,3,2,3,1,1,1.0,0.55,100.98,2.581,0,1.0
4,1,28,3,1,2,49,18,2,3,3,2,1,2.0,0.63,101.61,3.6,1,2.0
4,1,29,3,1,3,47,44,4,2,2,2,1,2.0,0.53,102.14,2.052,1,1.0
4,1,30,3,2,1,4,22,5,4,4,2,1,1.0,0.31,102.45,5.105,0,1.0
4,1,31,3,2,2,2,25,5,3,3,2,1,1.0,0.47,102.92,3.545,0,1.0
4,1,32,3,2,3,48,31,5,4,4,2,1,1.0,0.2,103.12,4.868,0,1.0
4,1,33,3,2,4,44,39,2,3,3,2,1,1.0,0.41,103.53,1.684,0,1.0
4,1,34,3,1,1,54,14,4,3,3,2,1,2.0,0.6,104.13,1.682,1,1.0
4,1,35,3,1,2,2,34,5,4,4,2,1,2.0,0.73,104.86,3.485,1,1.0
4,1,36,3,1,3,25,24,3,2,2,2,1,2.0,0.54,105.4,2.93,1,1.0
4,1,37,3,1,4,12,51,5,3,3,2,1,2.0,0.68,106.08,1.779,1,1.0
4,1,38,3,1,5,52,31,4,2,2,2,1,2.0,0.43,106.51,2.24,1,1.0
4,1,39,3,1,6,16,23,4,5,5,2,1,2.0,0.61,107.12,3.217,1,1.0
4,1,40,3,2,1,32,27,5,3,3,2,1,1.0,0.39,107.51,2.261,0,1.0
4,1,41,3,1,1,2,32,4,2,2,2,1,2.0,0.63,108.14,2.147,1,1.0
4,1,42,3,1,2,34,13,5,3,3,2,1,2.0,0.81,108.95,1.554,1,1.0
4,1,43,3,2,1,3,53,3,5,5,2,1,1.0,0.26,109.21,4.69,0,1.0
4,1,44,3,2,2,17,33,3,2,2,2,1,1.0,0.06,109.27,2.083,0,1.0
4,1,45,3,2,3,42,20,4,5,5,2,1,1.0,0.19,109.46,4.633,0,1.0
4,1,46,3,2,4,10,35,3,4,4,2,1,1.0,0.46,109.92,3.52,0,1.0
4,1,47,3,1,1,20,27,2,4,4,2,1,2.0,0.65,110.57,2.717,1,1.0
4,1,48,3,1,2,17,49,2,3,3,2,1,2.0,0.71,111.28,3.539,1,1.0
4,1,49,3,1,3,15,8,3,4,4,2,1,2.0,0.78,112.06,4.357,1,1.0
4,1,50,3,1,4,1,5,3,4,4,2,1,2.0,0.42,112.48,3.421,1,1.0
4,1,51,3,1,5,38,25,5,3,3,2,1,2.0,0.59,113.07,1.483,1,1.0
4,1,52,3,1,6,12,9,3,4,4,2,1,2.0,0.58,113.65,2.771,1,1.0
4,1,53,3,2,1,45,23,4,2,2,2,1,1.0,0.21,113.86,1.825,0,1.0
4,1,54,3,2,2,35,16,2,5,5,2,1,1.0,0.31,114.17,3.19,0,1.0
4,1,55,3,2,3,6,49,5,2,2,2,1,1.0,0.51,114.68,5.137,0,1.0
4,1,56,3,1,1,7,22,2,5,5,2,1,2.0,0.66,115.34,2.306,1,1.0
4,1,57,3,1,2,42,1,5,4,4,2,1,2.0,0.81,116.15,1.46,1,1.0
4,1,58,3,1,3,12,22,4,2,2,2,1,2.0,0.58,116.73,2.323,1,1.0
4,1,59,3,2,1,20,11,4,2,2,2,1,1.0,0.33,117.06,3.458,0,1.0
4,1,60,3,1,1,6,26,5,2,2,2,1,2.0,0.57,117.63,1.028,1,1.0
4,1,61,3,1,2,43,31,3,5,5,2,1,2.0,0.74,118.37,2.594,1,1.0
4,1,62,3,1,3,2,28,5,3,3,2,1,2.0,0.64,119.01,2.14,1,1.0
4,1,63,3,1,4,17,35,3,4,4,2,1,2.0,0.72,119.73,2.85,1,1.0
4,1,64,3,2,1,51,17,3,2,2,2,1,1.0,0.41,120.14,3.502,0,1.0
4,1,65,3,2,2,50,35,4,3,3,2,1,1.0,0.32,120.46,3.858,0,1.0
4,1,66,3,1,1,12,17,3,4,4,2,1,2.0,0.77,121.23,1.634,1,1.0
4,1,67,3,1,2,49,5,5,4,4,2,1,2.0,0.94,122.17,2.866,1,1.0
4,1,68,3,1,3,13,43,4,3,3,2,1,2.0,0.73,122.9,1.401,1,1.0
4,1,69,3,1,4,43,53,3,5,5,2,1,2.0,0.67,123.57,2.818,1,1.0
4,1,70,3,1,5,33,20,5,4,4,2,1,2.0,0.77,124.34,1.394,1,1.0
4,1,71,3,2,1,25,17,2,4,4,2,1,1.0,0.34,124.68,1.345,0,1.0
4,1,72,3,2,2,24,9,3,5,5,2,1,1.0,0.2,124.88,3.074,0,1.0
4,1,73,3,2,3,11,37,5,2,2,2,1,1.0,0.39,125.27,1.988,0,1.0
4,1,74,3,2,4,40,52,3,5,5,2,1,1.0,0.33,125.6,3.456,0,1.0
4,1,75,3,2,5,30,47,2,4,2,1,1,2.0,0.63,126.23,2.13,1,2.0
4,1,76,3,1,1,22,52,2,5,2,1,1,1.0,0.48,126.71,2.99,0,1.0
4,1,77,3,2,1,3,46,3,2,2,2,1,1.0,0.55,127.26,1.953,0,2.0
4,1,78,3,2,2,47,54,4,5,4,1,1,2.0,0.61,127.87,1.777,1,2.0
4,1,79,3,2,3,41,29,5,2,2,2,1,1.0,0.35,128.22,4.185,0,2.0
4,1,80,3,2,4,39,30,5,2,5,1,1,2.0,0.57,128.79,3.747,1,2.0
4,1,81,3,2,5,38,51,5,3,3,2,1,1.0,0.41,129.2,4.835,0,2.0
4,1,82,3,2,6,3,35,2,4,2,1,1,2.0,0.39,129.59,3.634,1,2.0
4,1,83,3,1,1,32,28,3,5,5,2,1,2.0,0.78,130.37,2.976,1,2.0
4,1,84,3,1,2,28,43,5,4,4,2,1,2.0,0.69,131.06,4.482,1,1.0
4,1,1,4,2,1,52,36,5,3,3,2,1,1.0,0.36,131.42,5.202,0,
4,1,2,4,1,1,20,49,2,4,4,2,1,2.0,0.81,132.23,3.568,1,1.0
4,1,3,4,1,2,51,5,3,2,2,2,1,2.0,0.63,132.86,2.658,1,1.0
4,1,4,4,1,3,8,11,3,5,3,1,1,1.0,0.32,133.18,2.354,0,2.0
4,1,5,4,2,1,17,23,3,5,5,2,1,1.0,0.18,133.36,2.641,0,2.0
4,1,6,4,2,2,18,50,2,3,2,1,1,2.0,0.47,133.83,2.257,1,2.0
4,1,7,4,1,1,51,19,4,3,4,1,1,1.0,0.25,134.08,2.544,0,1.0
4,1,8,4,1,2,1,22,5,2,2,2,1,2.0,0.7,134.78,1.683,1,2.0
4,1,9,4,1,3,21,28,3,4,3,1,1,1.0,0.27,135.05,1.873,0,2.0
4,1,10,4,1,4,30,49,4,3,3,2,1,2.0,0.51,135.56,3.938,1,2.0
4,1,11,4,2,1,22,6,3,5,5,2,1,1.0,0.46,136.02,1.812,0,1.0
4,1,12,4,2,2,33,36,5,2,5,1,1,2.0,0.58,136.6,3.552,1,2.0
4,1,13,4,2,3,21,37,2,4,4,2,1,1.0,0.33,136.93,4.8,0,2.0
4,1,14,4,2,4,25,31,5,2,2,2,1,1.0,0.33,137.26,2.864,0,1.0
4,1,15,4,2,5,44,45,4,5,5,2,1,1.0,0.3,137.56,4.866,0,1.0
4,1,16,4,1,1,53,16,2,3,3,2,1,2.0,0.71,138.27,3.409,1,1.0
4,1,17,4,1,2,13,33,5,3,3,2,1,2.0,0.64,138.91,3.156,1,1.0
4,1,18,4,1,3,22,46,3,2,2,2,1,2.0,0.47,139.38,2.418,1,1.0
4,1,19,4,1,4,19,52,4,2,2,2,1,2.0,0.55,139.93,2.4,1,1.0
4,1,20,4,1,5,35,3,3,4,4,2,1,2.0,0.7,140.63,3.502,1,1.0
4,1,21,4,2,1,39,1,4,2,2,2,1,1.0,0.18,140.81,3.713,0,1.0
4,1,22,4,2,2,19,28,2,5,5,2,1,1.0,0.29,141.1,3.333,0,1.0
4,1,23,4,2,3,24,18,5,4,4,2,1,1.0,0.22,141.32,2.499,0,1.0
4,1,24,4,2,4,34,8,5,4,4,2,1,1.0,0.19,141.51,1.267,0,1.0
4,1,25,4,2,5,4,26,5,2,2,2,1,1.0,0.21,141.72,1.952,0,1.0
4,1,26,4,2,6,18,32,5,4,4,2,1,1.0,0.29,142.01,3.09,0,1.0
4,1,27,4,1,1,53,49,4,5,5,2,1,2.0,0.69,142.7,2.337,1,1.0
4,1,28,4,1,2,10,31,5,2,2,2,1,2.0,0.65,143.35,1.694,1,1.0
4,1,29,4,2,1,40,1,4,2,2,2,1,1.0,0.46,143.81,1.552,0,1.0
4,1,30,4,2,2,5,39,4,3,3,2,1,1.0,0.3,144.11,4.833,0,1.0
4,1,31,4,2,3,41,4,3,2,2,2,1,1.0,0.15,144.26,1.122,0,1.0
4,1,32,4,2,4,39,24,3,4,4,2,1,1.0,0.33,144.59,2.673,0,1.0
4,1,33,4,1,1,50,9,3,5,5,2,1,2.0,0.68,145.27,1.474,1,1.0
4,1,34,4,1,2,22,6,3,2,2,2,1,2.0,0.7,145.97,1.379,1,1.0
4,1,35,4,1,3,24,42,2,5,5,2,1,2.0,0.73,146.7,4.93,1,1.0
4,1,36,4,1,4,7,20,4,5,5,2,1,2.0,0.82,147.52,1.456,1,1.0
4,1,37,4,1,5,9,2,3,4,4,2,1,2.0,0.6,148.12,2.582,1,1.0
4,1,38,4,1,6,3,14,3,2,2,2,1,2.0,0.7,148.82,2.402,1,1.0
4,1,39,4,2,1,25,42,3,2,2,2,1,1.0,0.33,149.15,1.855,0,1.0
4,1,40,4,2,2,38,9,2,3,3,2,1,1.0,0.26,149.41,2.033,0,1.0
4,1,42,4,1,1,47,53,2,5,5,2,1,2.0,0.64,150.97,3.825,1,2.0
4,1,43,4,2,1,4,23,5,3,3,2,1,1.0,0.17,151.14,2.066,0,1.0
4,1,44,4,1,1,34,15,3,2,2,2,1,2.0,0.88,152.02,2.681,1,1.0
4,1,45,4,1,2,39,44,4,2,2,2,1,2.0,0.71,152.73,1.343,1,1.0
4,1,46,4,1,3,54,28,4,3,3,2,1,2.0,0.54,153.27,2.578,1,1.0
4,1,47,4,1,4,14,23,5,4,4,2,1,2.0,0.74,154.01,3.438,1,1.0
4,1,48,4,1,5,42,38,3,5,5,2,1,2.0,0.82,154.83,3.481,1,1.0
4,1,49,4,1,6,36,26,5,2,2,2,1,2.0,0.56,155.39,1.593,1,1.0
4,1,50,4,2,1,26,2,2,3,3,2,1,1.0,0.35,155.74,4.594,0,1.0
4,1,51,4,2,2,36,19,2,5,2,1,1,2.0,0.65,156.39,1.906,1,2.0
4,1,52,4,2,3,19,46,4,3,3,2,1,1.0,0.2,156.59,0.322,0,2.0
4,1,53,4,1,1,23,40,5,3,3,2,1,2.0,0.81,157.4,6.226,1,1.0
4,1,54,4,1,2,26,34,5,2,2,2,1,2.0,0.67,158.07,2.816,1,1.0
4,1,55,4,1,3,23,38,5,3,3,2,1,2.0,0.73,158.8,1.951,1,1.0
4,1,56,4,1,4,47,33,2,4,4,2,1,2.0,0.58,159.38,3.424,1,1.0
4,1,57,4,2,1,5,48,4,2,2,2,1,1.0,0.26,159.64,4.512,0,1.0
4,1,58,4,2,2,24,25,2,4,2,1,1,2.0,0.7,160.34,1.647,1,2.0
4,1,59,4,2,3,38,33,2,3,3,2,1,1.0,0.35,160.69,5.025,0,2.0
4,1,60,4,2,4,32,45,4,5,5,2,1,1.0,0.55,161.24,6.241,0,1.0
4,1,61,4,1,1,7,9,2,5,5,2,1,2.0,0.63,161.87,1.442,1,1.0
4,1,62,4,1,2,54,19,2,5,5,2,1,2.0,0.93,162.8,2.129,1,1.0
4,1,63,4,2,1,22,32,2,4,2,1,1,2.0,0.84,163.64,1.327,1,2.0
4,1,64,4,2,2,30,25,2,4,4,2,1,1.0,0.1,163.74,4.722,0,2.0
4,1,65,4,2,3,40,26,4,3,3,2,1,1.0,0.13,163.87,4.07,0,1.0
4,1,66,4,2,4,6,24,3,4,4,2,1,1.0,0.27,164.14,2.195,0,1.0
4,1,67,4,2,5,28,31,2,3,3,2,1,1.0,0.31,164.45,3.535,0,1.0
4,1,68,4,1,1,23,28,4,5,5,2,1,2.0,0.67,165.12,4.174,1,1.0
4,1,69,4,1,2,9,34,5,3,3,2,1,2.0,0.77,165.89,2.785,1,1.0
4,1,70,4,1,3,45,25,3,4,4,2,1,2.0,0.58,166.47,4.113,1,1.0
4,1,71,4,1,4,17,51,5,4,4,2,1,2.0,0.58,167.05,2.082,1,1.0
4,1,72,4,1,5,6,44,5,4,4,2,1,2.0,0.64,167.69,3.218,1,1.0
4,1,73,4,2,1,39,29,4,5,5,2,1,1.0,0.33,168.02,3.04,0,1.0
4,1,74,4,2,2,17,46,4,5,5,2,1,1.0,0.37,168.39,1.973,0,1.0
4,1,75,4,1,1,3,35,2,3,3,2,1,2.0,0.79,169.18,2.669,1,1.0
4,1,76,4,1,2,51,39,3,5,5,2,1,2.0,0.74,169.92,3.025,1,1.0
4,1,77,4,1,3,27,38,5,4,4,2,1,2.0,0.46,170.38,1.683,1,1.0
4,1,78,4,2,1,34,48,4,2,2,2,1,1.0,0.42,170.8,1.458,0,1.0
4,1,79,4,2,2,11,5,3,4,4,2,1,1.0,0.43,171.23,4.099,0,1.0
4,1,80,4,2,3,28,29,4,2,2,2,1,1.0,0.41,171.64,4.657,0,1.0
4,1,81,4,2,4,22,16,5,3,3,2,1,1.0,0.49,172.13,2.593,0,1.0
4,1,82,4,2,5,17,20,2,4,4,2,1,1.0,0.37,172.5,2.037,0,1.0
4,1,83,4,2,6,53,7,2,5,5,2,1,1.0,0.25,172.75,4.656,0,1.0
4,1,84,4,1,1,28,49,3,5,5,2,1,2.0,0.65,173.4,4.006,1,1.0
5,2,1,1,1,1,32,42,4,2,2,2,1,1.0,0.28,0.28,3.493,1,
5,2,2,1,2,1,49,33,3,5,3,1,1,1.0,0.14,0.42,4.235,1,2.0
5,2,3,1,2,2,52,29,5,3,3,2,1,2.0,0.68,1.1,4.224,0,2.0
5,2,4,1,2,3,8,54,4,3,3,2,1,2.0,0.7,1.8,1.644,0,1.0
5,2,5,1,2,4,18,30,5,2,2,2,1,2.0,0.53,2.33,1.176,0,1.0
5,2,6,1,1,1,7,24,5,3,5,1,1,2.0,0.81,3.14,2.874,0,2.0
5,2,7,1,1,2,33,31,2,4,2,1,1,2.0,0.81,3.95,5.313,0,1.0
5,2,8,1,1,3,43,6,5,3,5,1,1,2.0,0.66,4.61,3.724,0,1.0
5,2,9,1,1,4,12,37,4,3,3,2,1,1.0,0.37,4.98,7.502,1,2.0
5,2,10,1,1,5,11,54,5,4,5,1,1,2.0,0.69,5.67,1.041,0,2.0
5,2,11,1,2,1,31,22,3,2,2,2,1,2.0,0.65,6.32,2.404,0,2.0
5,2,12,1,2,2,32,45,5,4,5,1,1,1.0,0.42,6.74,6.579,1,2.0
5,2,13,1,2,3,51,43,3,4,4,2,1,2.0,0.6,7.34,3.0,0,2.0
5,2,14,1,2,4,45,28,4,5,4,1,1,1.0,0.59,7.93,4.515,1,2.0
5,2,15,1,2,5,2,44,3,4,4,2,1,2.0,0.65,8.58,3.519,0,2.0
5,2,16,1,1,1,35,38,2,4,4,2,1,1.0,0.35,8.93,3.444,1,1.0
5,2,17,1,1,2,18,50,4,2,4,1,1,2.0,0.79,9.72,4.931,0,2.0
5,2,18,1,2,1,7,32,2,5,5,2,1,2.0,0.67,10.39,2.673,0,2.0
5,2,19,1,2,2,11,51,5,3,5,1,1,1.0,0.32,10.71,2.642,1,2.0
5,2,20,1,2,3,46,40,5,3,3,2,1,2.0,0.57,11.28,5.924,0,2.0
5,2,21,1,1,1,19,3,2,4,2,1,1,2.0,0.7,11.98,3.201,0,2.0
5,2,22,1,1,2,13,33,5,2,5,1,1,2.0,0.51,12.49,1.255,0,1.0
5,2,23,1,1,3,38,36,4,3,4,1,1,2.0,0.75,13.24,3.186,0,1.0
5,2,24,1,1,4,17,18,4,5,4,1,1,2.0,0.86,14.1,4.145,0,1.0
5,2,25,1,2,1,31,23,5,2,2,2,1,2.0,0.59,14.69,4.484,0,2.0
5,2,26,1,2,2,31,29,4,2,2,2,1,2.0,0.77,15.46,2.033,0,1.0
5,2,27,1,1,1,25,49,3,2,3,1,1,2.0,0.81,16.27,5.157,0,2.0
5,2,28,1,1,2,11,19,3,4,4,2,1,1.0,0.15,16.42,3.827,1,2.0
5,2,30,1,2,1,22,3,3,2,3,1,1,1.0,0.16,16.58,6.5,1,
5,2,31,1,1,1,52,54,2,3,2,1,1,2.0,0.73,17.31,3.122,0,1.0
5,2,32,1,1,2,5,15,4,2,2,2,1,1.0,0.29,17.6,6.323,1,2.0
5,2,33,1,1,3,48,52,5,2,2,2,1,1.0,0.41,18.01,8.771,1,1.0
5,2,34,1,1,4,7,31,5,2,2,2,1,1.0,0.43,18.44,2.2,1,1.0
5,2,35,1,1,5,37,5,2,4,2,1,1,2.0,0.75,19.19,4.756,0,2.0
5,2,36,1,1,6,7,12,2,5,5,2,1,1.0,0.49,19.68,3.955,1,2.0
5,2,37,1,2,1,32,15,5,4,5,1,1,1.0,0.41,20.09,2.674,1,2.0
5,2,38,1,2,2,36,12,2,3,2,1,1,1.0,0.47,20.56,2.274,1,1.0
5,2,39,1,2,3,48,21,3,2,2,2,1,2.0,0.53,21.09,7.778,0,2.0
5,2,41,1,2,5,29,25,3,2,3,1,1,1.0,0.31,21.73,3.137,1,1.0
5,2,42,1,2,6,18,24,4,2,4,1,1,1.0,0.14,21.87,1.857,1,1.0
5,2,43,1,1,1,42,5,2,3,2,1,1,2.0,0.7,22.57,2.418,0,1.0
5,2,44,1,1,2,10,1,3,5,3,1,1,2.0,0.54,23.11,3.478,0,1.0
5,2,45,1,1,3,45,36,2,5,5,2,1,1.0,0.5,23.61,4.434,1,2.0
5,2,46,1,2,1,25,9,2,5,2,1,1,1.0,0.24,23.85,2.932,1,2.0
5,2,47,1,2,2,53,32,3,4,4,2,1,2.0,0.73,24.58,6.211,0,2.0
5,2,48,1,2,3,4,23,3,2,2,2,1,2.0,0.69,25.27,2.42,0,1.0
5,2,49,1,2,4,12,20,2,5,2,1,1,1.0,0.22,25.49,4.944,1,2.0
5,2,50,1,1,1,6,36,3,5,3,1,1,2.0,0.41,25.9,3.368,0,1.0
5,2,51,1,1,2,49,27,4,5,4,1,1,2.0,0.66,26.56,4.334,0,1.0
5,2,52,1,1,3,32,28,3,4,4,2,1,1.0,0.21,26.77,5.12,1,2.0
5,2,53,1,1,4,47,30,2,4,4,2,1,1.0,0.41,27.18,1.01,1,1.0
5,2,56,1,2,3,16,1,2,3,2,1,1,1.0,0.53,28.1,2.993,1,1.0
5,2,57,1,1,1,29,28,4,3,3,2,1,1.0,0.4,28.5,2.721,1,2.0
5,2,58,1,1,2,41,29,5,3,3,2,1,1.0,0.26,28.76,9.237,1,1.0
5,2,59,1,1,3,54,38,4,3,3,2,1,1.0,0.38,29.14,7.65,1,1.0
5,2,60,1,1,4,46,16,5,4,4,2,1,1.0,0.21,29.35,9.01,1,1.0
5,2,61,1,1,5,31,22,4,5,4,1,1,2.0,0.66,30.01,1.941,0,2.0
5,2,62,1,1,6,6,41,2,5,2,1,1,2.0,0.66,30.67,3.33,0,1.0
5,2,63,1,2,1,9,5,5,2,2,2,1,2.0,0.67,31.34,5.312,0,2.0
5,2,64,1,2,2,52,7,3,5,3,1,1,1.0,0.3,31.64,2.148,1,2.0
5,2,65,1,1,1,23,40,5,4,5,1,1,2.0,0.8,32.44,5.986,0,1.0
5,2,66,1,1,2,1,10,4,3,4,1,1,2.0,0.45,32.89,3.985,0,1.0
5,2,67,1,2,1,11,31,4,5,4,1,1,1.0,0.38,33.27,1.408,1,1.0
5,2,68,1,2,2,7,24,4,5,4,1,1,1.0,0.44,33.71,6.548,1,1.0
5,2,69,1,2,3,40,10,5,3,5,1,1,1.0,0.42,34.13,7.665,1,1.0
5,2,70,1,2,4,37,44,5,4,5,1,1,1.0,0.4,34.53,6.163,1,1.0
5,2,71,1,2,5,41,18,3,4,4,2,1,2.0,0.67,35.2,2.338,0,2.0
5,2,72,1,1,1,54,38,5,4,5,1,1,2.0,0.75,35.95,4.274,0,2.0
5,2,73,1,1,2,9,38,3,4,4,2,1,1.0,0.4,36.35,2.533,1,2.0
5,2,74,1,1,3,48,17,3,5,3,1,1,2.0,0.64,36.99,3.011,0,2.0
5,2,75,1,1,4,13,48,2,4,4,2,1,1.0,0.29,37.28,1.856,1,2.0
5,2,76,1,1,5,28,22,3,5,3,1,1,2.0,0.63,37.91,1.628,0,2.0
5,2,77,1,2,1,53,7,3,5,3,1,1,1.0,0.16,38.07,4.299,1,1.0
5,2,78,1,1,1,21,24,2,3,2,1,1,2.0,0.64,38.71,2.838,0,1.0
5,2,79,1,2,1,33,8,2,3,2,1,1,1.0,0.35,39.06,1.074,1,1.0
5,2,80,1,2,2,7,50,2,4,4,2,1,2.0,0.7,39.76,5.586,0,2.0
5,2,81,1,2,3,24,53,3,2,2,2,1,2.0,0.84,40.6,1.459,0,1.0
5,2,82,1,2,4,2,1,4,5,4,1,1,1.0,0.29,40.89,5.638,1,2.0
5,2,83,1,2,5,6,5,5,2,2,2,1,2.0,0.74,41.63,5.601,0,2.0
5,2,84,1,2,6,19,9,2,3,2,1,1,1.0,0.43,42.06,2.29,1,2.0
5,2,1,2,2,1,3,26,4,5,5,2,1,2.0,0.78,42.84,2.689,0,
5,2,2,2,2,2,52,11,4,2,4,1,1,1.0,0.22,43.06,3.682,1,2.0
5,2,3,2,2,3,9,36,5,2,5,1,1,1.0,0.36,43.42,4.978,1,1.0
5,2,4,2,2,4,14,49,3,4,3,1,1,1.0,0.36,43.78,2.193,1,1.0
5,2,5,2,1,1,9,24,2,5,2,1,1,2.0,0.55,44.33,2.229,0,1.0
5,2,6,2,1,2,37,45,5,4,5,1,1,2.0,0.58,44.91,2.804,0,1.0
5,2,7,2,1,3,25,45,2,5,5,2,1,1.0,0.46,45.37,4.915,1,2.0
5,2,8,2,1,4,8,1,5,4,4,2,1,1.0,0.32,45.69,7.074,1,1.0
5,2,9,2,2,1,49,1,3,5,3,1,1,1.0,0.38,46.07,3.106,1,2.0
5,2,10,2,1,1,53,50,2,3,2,1,1,2.0,0.68,46.75,6.516,0,1.0
5,2,11,2,1,2,33,29,5,4,4,2,1,1.0,0.26,47.01,5.81,1,2.0
5,2,12,2,1,3,1,27,3,5,5,2,1,1.0,0.27,47.28,3.282,1,1.0
5,2,13,2,2,1,12,18,2,5,2,1,1,1.0,0.39,47.67,2.21,1,2.0
5,2,14,2,2,2,39,37,4,3,4,1,1,1.0,0.22,47.89,6.369,1,1.0
5,2,15,2,2,3,51,48,2,3,2,1,1,1.0,0.43,48.32,1.521,1,1.0
5,2,16,2,2,4,6,20,3,4,3,1,1,1.0,0.4,48.72,2.452,1,1.0
5,2,17,2,2,5,26,15,4,2,4,1,1,1.0,0.24,48.96,2.643,1,1.0
5,2,18,2,2,6,38,44,4,3,4,1,1,1.0,0.3,49.26,2.984,1,1.0
5,2,19,2,1,1,15,29,3,5,3,1,1,2.0,0.53,49.79,6.531,0,1.0
5,2,20,2,1,2,33,25,3,5,5,2,1,1.0,0.07,49.86,4.488,1,2.0
5,2,21,2,1,3,11,26,5,2,5,1,1,2.0,0.78,50.64,1.122,0,2.0
5,2,22,2,1,4,39,29,4,2,2,2,1,1.0,0.27,50.91,1.412,1,2.0
5,2,23,2,1,5,8,28,5,4,4,2,1,1.0,0.37,51.28,2.322,1,1.0
5,2,24,2,1,6,2,44,2,3,3,2,1,1.0,0.36,51.64,3.637,1,1.0
5,2,25,2,2,1,2,38,4,3,4,1,1,1.0,0.34,51.98,2.978,1,2.0
5,2,26,2,2,2,35,21,3,2,2,2,1,2.0,0.55,52.53,3.811,0,2.0
5,2,27,2,2,3,23,49,5,3,5,1,1,1.0,0.22,52.75,5.17,1,2.0
5,2,28,2,1,1,7,10,4,3,3,2,1,1.0,0.29,53.04,2.882,1,2.0
5,2,29,2,1,2,45,30,2,3,3,2,1,1.0,0.19,53.23,5.667,1,1.0
5,2,30,2,2,1,9,35,4,5,5,2,1,2.0,0.54,53.77,3.953,0,1.0
5,2,31,2,2,2,30,9,3,4,3,1,1,1.0,0.51,54.28,6.194,1,2.0
5,2,32,2,2,3,24,28,3,2,2,2,1,2.0,0.67,54.95,1.489,0,2.0
5,2,33,2,2,4,17,44,5,4,5,1,1,1.0,0.19,55.14,3.129,1,2.0
5,2,34,2,2,5,27,13,2,3,2,1,1,1.0,0.33,55.47,1.329,1,1.0
5,2,35,2,1,1,3,4,4,2,4,1,1,2.0,0.53,56.0,3.891,0,1.0
5,2,36,2,1,2,30,14,4,5,5,2,1,1.0,0.17,56.17,3.86,1,2.0
5,2,37,2,1,3,34,3,2,4,2,1,1,2.0,0.64,56.81,3.037,0,2.0
5,2,38,2,1,4,1,53,3,5,3,1,1,2.0,0.78,57.59,5.106,0,1.0
5,2,39,2,1,5,49,50,4,5,4,1,1,2.0,0.68,58.27,5.312,0,1.0
5,2,40,2,2,1,43,16,5,3,3,2,1,2.0,0.74,59.01,4.049,0,2.0
5,2,41,2,2,2,38,17,4,5,5,2,1,2.0,0.53,59.54,2.144,0,1.0
5,2,42,2,1,1,45,17,5,2,2,2,1,1.0,0.28,59.82,7.181,1,1.0
5,2,43,2,2,1,40,22,4,3,4,1,1,1.0,0.3,60.12,3.275,1,2.0
5,2,44,2,2,2,37,31,4,2,4,1,1,1.0,0.19,60.31,3.402,1,1.0
5,2,45,2,1,1,52,30,3,5,3,1,1,2.0,0.51,60.82,2.417,0,1.0
5,2,46,2,1,2,32,17,3,2,2,2,1,1.0,0.44,61.26,7.003,1,2.0
5,2,47,2,2,1,34,33,2,5,2,1,1,1.0,0.33,61.59,4.115,1,2.0
5,2,48,2,2,2,13,29,3,2,2,2,1,2.0,0.59,62.18,1.57,0,2.0
5,2,49,2,2,3,5,8,4,5,5,2,1,2.0,0.76,62.94,2.401,0,1.0
5,2,50,2,2,4,43,47,3,2,2,2,1,2.0,0.69,63.63,5.522,0,1.0
5,2,51,2,2,5,29,2,2,4,2,1,1,1.0,0.22,63.85,2.754,1,2.0
5,2,52,2,1,1,51,28,2,3,3,2,1,1.0,0.49,64.34,1.812,1,2.0
5,2,53,2,1,2,17,24,3,5,3,1,1,2.0,0.7,65.04,2.418,0,2.0
5,2,54,2,1,3,48,37,4,2,2,2,1,1.0,0.51,65.55,2.787,1,2.0
5,2,55,2,1,4,18,17,4,3,3,2,1,1.0,0.47,66.02,2.45,1,1.0
5,2,56,2,1,5,1,37,3,4,4,2,1,1.0,0.25,66.27,6.578,1,1.0
5,2,57,2,1,6,13,27,2,4,2,1,1,2.0,0.51,66.78,2.307,0,2.0
5,2,58,2,2,1,24,15,2,5,2,1,1,1.0,0.32,67.1,2.897,1,1.0
5,2,59,2,2,2,27,20,5,3,5,1,1,1.0,0.29,67.39,1.026,1,1.0
5,2,60,2,2,3,54,21,5,2,2,2,1,2.0,0.57,67.96,3.699,0,2.0
5,2,61,2,2,4,27,36,2,4,4,2,1,2.0,0.73,68.69,3.235,0,1.0
5,2,62,2,2,5,48,24,5,3,5,1,1,1.0,0.51,69.2,2.963,1,2.0
5,2,63,2,2,6,47,42,2,4,2,1,1,1.0,0.27,69.47,2.0,1,1.0
5,2,64,2,1,1,15,35,5,4,4,2,1,1.0,0.23,69.7,2.081,1,2.0
5,2,65,2,1,2,8,12,5,4,4,2,1,1.0,0.3,70.0,1.424,1,1.0
5,2,66,2,1,3,39,23,2,5,5,2,1,1.0,0.41,70.41,3.908,1,1.0
5,2,67,2,1,4,51,12,3,4,3,1,1,2.0,0.57,70.98,4.194,0,2.0
5,2,68,2,1,5,34,30,4,5,5,2,1,1.0,0.19,71.17,2.019,1,2.0
5,2,69,2,2,1,51,11,5,3,3,2,1,2.0,0.65,71.82,1.441,0,1.0
5,2,70,2,2,2,35,1,4,2,2,2,1,2.0,0.66,72.48,2.338,0,1.0
5,2,71,2,2,3,26,9,2,5,5,2,1,2.0,0.72,73.2,3.587,0,1.0
5,2,72,2,1,1,53,23,5,2,5,1,1,2.0,0.6,73.8,1.859,0,2.0
5,2,73,2,1,2,42,9,4,3,3,2,1,1.0,0.32,74.12,2.085,1,2.0
5,2,75,2,1,4,29,2,3,4,3,1,1,2.0,0.62,74.74,1.267,0,
5,2,76,2,2,1,6,13,5,3,3,2,1,2.0,0.66,75.4,1.426,0,2.0
5,2,77,2,2,2,51,13,2,3,3,2,1,2.0,0.85,76.25,1.074,0,1.0
5,2,78,2,2,3,23,38,3,4,4,2,1,2.0,0.6,76.85,1.075,0,1.0
5,2,79,2,2,4,33,44,3,2,2,2,1,2.0,0.51,77.36,9.219,0,1.0
5,2,80,2,1,1,3,48,5,3,5,1,1,2.0,0.72,78.08,4.339,0,2.0
5,2,81,2,1,2,14,3,5,2,2,2,1,1.0,0.23,78.31,6.13,1,2.0
5,2,82,2,1,3,20,44,2,4,2,1,1,2.0,0.67,78.98,2.866,0,2.0
5,2,83,2,2,1,19,23,2,4,2,1,1,1.0,0.26,79.24,4.51,1,1.0
5,2,84,2,1,1,15,44,3,2,3,1,1,2.0,0.73,79.97,3.33,0,1.0
5,2,1,3,2,1,30,5,3,4,4,2,1,2.0,0.73,80.7,6.098,0,
5,2,2,3,2,2,13,51,3,4,4,2,1,2.0,0.64,81.34,1.458,0,1.0
5,2,3,3,1,1,48,52,3,2,2,2,1,1.0,0.09,81.43,1.633,1,1.0
5,2,4,3,1,2,28,5,3,5,5,2,1,1.0,0.35,81.78,6.74,1,1.0
5,2,5,3,2,1,44,7,5,2,5,1,1,1.0,0.52,82.3,3.848,1,2.0
5,2,6,3,2,2,42,15,2,5,2,1,1,1.0,0.45,82.75,3.748,1,1.0
5,2,8,3,2,4,35,23,2,3,3,2,1,2.0,0.66,83.56,2.171,0,2.0
5,2,9,3,2,5,28,25,5,2,5,1,1,1.0,0.25,83.81,1.394,1,2.0
5,2,10,3,2,6,5,48,4,5,4,1,1,1.0,0.21,84.02,4.209,1,1.0
5,2,11,3,1,1,29,38,4,5,4,1,1,2.0,0.52,84.54,2.307,0,1.0
5,2,12,3,1,2,17,43,3,4,4,2,1,1.0,0.37,84.91,4.42,1,2.0
5,2,13,3,1,3,41,35,5,3,3,2,1,1.0,0.28,85.19,4.122,1,1.0
5,2,14,3,1,4,18,9,5,4,5,1,1,2.0,0.67,85.86,4.083,0,2.0
5,2,15,3,1,5,8,36,3,2,2,2,1,1.0,0.29,86.15,4.0,1,2.0
5,2,16,3,2,1,6,28,4,2,2,2,1,2.0,0.61,86.76,2.544,0,1.0
5,2,17,3,1,1,37,5,3,5,5,2,1,1.0,0.38,87.14,3.937,1,1.0
5,2,18,3,2,1,4,2,2,5,5,2,1,2.0,0.75,87.89,2.386,0,1.0
5,2,19,3,2,2,12,1,2,4,2,1,1,1.0,0.58,88.47,6.519,1,2.0
5,2,20,3,2,3,31,22,2,3,3,2,1,2.0,0.51,88.98,6.286,0,2.0
5,2,21,3,2,4,19,6,2,4,2,1,1,1.0,0.21,89.19,3.476,1,2.0
5,2,22,3,2,5,26,13,2,5,5,2,1,2.0,0.79,89.98,2.21,0,2.0
5,2,23,3,1,1,51,21,2,5,2,1,1,2.0,0.62,90.6,1.889,0,2.0
5,2,24,3,1,2,34,7,5,2,2,2,1,1.0,0.17,90.77,2.215,1,2.0
5,2,25,3,1,3,50,4,4,3,4,1,1,2.0,0.7,91.47,2.259,0,2.0
5,2,26,3,1,4,16,33,5,4,5,1,1,2.0,0.85,92.32,2.611,0,1.0
5,2,27,3,2,1,9,30,4,2,4,1,1,1.0,0.42,92.74,1.36,1,1.0
5,2,28,3,2,2,12,5,2,3,2,1,1,1.0,0.56,93.3,2.002,1,1.0
5,2,29,3,2,3,28,4,4,5,4,1,1,1.0,0.39,93.69,4.401,1,1.0
5,2,30,3,1,1,54,51,5,3,3,2,1,1.0,0.55,94.24,5.745,1,2.0
5,2,31,3,1,2,40,5,3,2,2,2,1,1.0,0.29,94.53,2.546,1,1.0
5,2,32,3,1,3,54,38,4,3,3,2,1,1.0,0.2,94.73,3.187,1,1.0
5,2,33,3,1,4,28,22,4,2,4,1,1,2.0,0.64,95.37,1.812,0,2.0
5,2,34,3,1,5,4,47,5,4,5,1,1,2.0,0.81,96.18,2.418,0,1.0
5,2,35,3,1,6,48,1,3,4,4,2,1,1.0,0.2,96.38,1.604,1,2.0
5,2,36,3,2,1,20,40,4,5,4,1,1,1.0,0.41,96.79,1.649,1,2.0
5,2,37,3,2,2,28,12,3,5,5,2,1,2.0,0.6,97.39,1.747,0,2.0
5,2,38,3,2,3,39,48,4,2,4,1,1,1.0,0.4,97.79,2.196,1,2.0
5,2,39,3,2,4,13,8,5,3,5,1,1,1.0,0.2,97.99,1.649,1,1.0
5,2,40,3,1,1,46,28,3,4,3,1,1,2.0,0.68,98.67,3.352,0,1.0
5,2,41,3,1,2,18,31,4,3,3,2,1,1.0,0.1,98.77,3.346,1,2.0
5,2,42,3,1,3,15,39,4,5,4,1,1,2.0,0.61,99.38,2.416,0,2.0
5,2,43,3,2,1,28,15,3,5,3,1,1,1.0,0.39,99.77,3.235,1,1.0
5,2,44,3,1,1,1,32,3,4,3,1,1,2.0,0.63,100.4,1.411,0,1.0
5,2,45,3,1,2,41,25,3,2,2,2,1,1.0,0.48,100.88,6.577,1,2.0
5,2,46,3,1,3,29,19,4,2,4,1,1,2.0,0.59,101.47,1.186,0,2.0
5,2,47,3,2,1,8,35,2,4,2,1,1,1.0,0.06,101.53,1.713,1,1.0
5,2,48,3,2,2,18,30,2,3,2,1,1,1.0,0.19,101.72,3.584,1,1.0
5,2,49,3,2,3,33,35,4,5,4,1,1,1.0,0.46,102.18,2.644,1,1.0
5,2,50,3,2,4,47,19,3,2,2,2,1,2.0,0.65,102.83,2.915,0,2.0
5,2,51,3,2,5,48,53,5,2,2,2,1,2.0,0.71,103.54,2.544,0,1.0
5,2,52,3,1,1,35,51,4,2,2,2,1,1.0,0.44,103.98,1.415,1,1.0
5,2,53,3,1,2,11,2,5,4,5,1,1,2.0,0.42,104.4,7.408,0,2.0
5,2,54,3,1,3,24,37,5,4,4,2,1,1.0,0.26,104.66,6.773,1,2.0
5,2,55,3,1,4,17,51,5,3,3,2,1,1.0,0.25,104.91,1.524,1,1.0
5,2,56,3,2,1,43,16,4,3,3,2,1,2.0,0.55,105.46,4.467,0,1.0
5,2,57,3,2,2,33,51,2,3,3,2,1,2.0,0.65,106.11,1.768,0,1.0
5,2,58,3,2,3,47,16,5,4,5,1,1,1.0,0.51,106.62,2.95,1,2.0
5,2,59,3,1,1,25,43,5,4,5,1,1,2.0,0.66,107.28,2.146,0,1.0
5,2,60,3,1,2,29,44,5,2,5,1,1,2.0,0.81,108.09,2.76,0,1.0
5,2,61,3,1,3,48,24,3,2,2,2,1,1.0,0.25,108.34,3.51,1,2.0
5,2,62,3,1,4,41,1,2,5,5,2,1,1.0,0.33,108.67,2.58,1,1.0
5,2,63,3,1,5,3,21,4,2,2,2,1,1.0,0.24,108.91,1.65,1,1.0
5,2,64,3,2,1,15,34,2,5,2,1,1,1.0,0.4,109.31,2.659,1,2.0
5,2,65,3,2,2,17,15,5,3,5,1,1,1.0,0.3,109.61,2.674,1,1.0
5,2,66,3,1,1,46,27,2,3,2,1,1,2.0,0.72,110.33,2.052,0,1.0
5,2,67,3,1,2,25,7,2,3,3,2,1,1.0,0.41,110.74,3.686,1,2.0
5,2,68,3,2,1,3,52,5,2,2,2,1,2.0,0.66,111.4,1.666,0,1.0
5,2,69,3,2,2,9,45,3,4,4,2,1,2.0,0.77,112.17,2.673,0,1.0
5,2,70,3,2,3,26,31,3,5,5,2,1,2.0,0.94,113.11,1.779,0,1.0
5,2,71,3,2,4,27,21,2,4,2,1,1,1.0,0.39,113.5,1.3,1,2.0
5,2,72,3,2,5,53,9,2,4,4,2,1,2.0,0.67,114.17,1.295,0,2.0
5,2,73,3,2,6,49,19,4,5,4,1,1,1.0,0.44,114.61,1.42,1,2.0
5,2,74,3,1,1,25,11,2,5,2,1,1,2.0,0.67,115.28,3.186,0,1.0
5,2,75,3,2,1,28,32,2,4,2,1,1,1.0,0.2,115.48,0.897,1,1.0
5,2,76,3,2,2,23,19,2,4,4,2,1,2.0,0.72,116.2,3.316,0,2.0
5,2,77,3,2,3,16,30,4,3,4,1,1,1.0,0.33,116.53,4.147,1,2.0
5,2,78,3,2,4,53,49,3,5,5,2,1,2.0,0.63,117.16,5.4,0,2.0
5,2,79,3,1,1,26,4,4,3,4,1,1,2.0,0.82,117.98,1.514,0,2.0
5,2,80,3,1,2,11,45,5,2,5,1,1,2.0,0.89,118.87,1.237,0,1.0
5,2,81,3,1,3,35,39,5,3,5,1,1,2.0,0.61,119.48,2.77,0,1.0
5,2,82,3,1,4,10,6,4,3,4,1,1,2.0,0.68,120.16,1.313,0,1.0
5,2,84,3,1,6,42,38,3,2,2,2,1,1.0,0.41,121.14,4.019,1,2.0
6,1,1,1,2,1,29,20,5,4,5,1,1,2.0,0.62,0.62,6.304,1,
6,1,2,1,2,2,7,2,5,2,2,2,1,1.0,0.14,0.76,6.594,0,2.0
6,1,3,1,2,3,16,1,5,2,2,2,1,1.0,0.35,1.11,3.416,0,1.0
6,1,5,1,2,5,27,5,2,5,5,2,1,1.0,0.2,2.01,8.119,0,2.0
6,1,6,1,1,1,16,5,3,2,3,1,1,1.0,0.47,2.48,2.192,0,2.0
6,1,7,1,1,2,25,41,2,4,4,2,1,2.0,0.81,3.29,3.798,1,2.0
6,1,8,1,2,1,14,17,2,4,2,1,1,2.0,0.66,3.95,4.363,1,2.0
6,1,9,1,2,2,28,3,5,4,5,1,1,2.0,0.71,4.66,10.17,1,1.0
6,1,10,1,2,3,1,37,3,4,3,1,1,2.0,0.69,5.35,6.897,1,1.0
6,1,11,1,1,1,36,1,2,3,3,2,1,2.0,0.65,6.0,5.834,1,2.0
6,1,12,1,1,2,7,21,5,2,2,2,1,2.0,0.75,6.75,9.917,1,1.0
6,1,13,1,1,3,40,36,2,4,2,1,1,1.0,0.26,7.01,6.51,0,2.0
6,1,14,1,1,4,47,39,5,4,5,1,1,1.0,0.59,7.6,5.288,0,1.0
6,1,15,1,2,1,3,39,5,4,4,2,1,1.0,0.32,7.92,4.626,0,2.0
6,1,16,1,2,2,35,24,2,3,2,1,1,2.0,0.68,8.6,7.382,1,2.0
6,1,17,1,2,3,33,48,2,4,2,1,1,2.0,0.79,9.39,6.38,1,1.0
6,1,18,1,2,4,44,19,3,2,2,2,1,1.0,0.34,9.73,11.002,0,2.0
6,1,19,1,2,5,37,47,5,4,5,1,1,2.0,0.66,10.39,5.28,1,2.0
6,1,20,1,2,6,54,16,4,3,4,1,1,2.0,0.57,10.96,3.69,1,1.0
6,1,21,1,1,1,43,17,4,2,4,1,1,1.0,0.37,11.33,3.988,0,1.0
6,1,22,1,1,2,7,19,4,5,4,1,1,1.0,0.18,11.51,2.85,0,1.0
6,1,23,1,1,3,31,50,3,4,3,1,1,1.0,0.42,11.93,12.365,0,1.0
6,1,25,1,1,5,22,13,4,5,5,2,1,2.0,0.86,12.79,3.769,1,
6,1,26,1,2,1,13,1,4,2,2,2,1,1.0,0.25,13.04,3.936,0,1.0
6,1,27,1,2,2,22,20,3,5,5,2,1,1.0,0.43,13.47,8.271,0,1.0
6,1,28,1,2,3,46,41,3,5,5,2,1,1.0,0.48,13.95,3.81,0,1.0
6,1,29,1,2,4,46,27,4,2,4,1,1,2.0,0.48,14.43,4.232,1,2.0
6,1,30,1,1,1,30,21,5,2,2,2,1,2.0,0.5,14.93,4.38,1,2.0
6,1,31,1,1,2,37,46,3,4,4,2,1,2.0,0.73,15.66,9.273,1,1.0
6,1,32,1,1,3,30,7,5,2,5,1,1,1.0,0.29,15.95,4.404,0,2.0
6,1,34,1,1,5,16,8,2,5,5,2,1,2.0,0.76,17.46,7.6,1,1.0
6,1,35,1,1,6,18,39,2,5,2,1,1,1.0,0.42,17.88,11.245,0,2.0
6,1,36,1,2,1,42,49,3,2,2,2,1,1.0,0.49,18.37,7.673,0,2.0
6,1,37,1,1,1,19,38,2,4,2,1,1,1.0,0.41,18.78,3.923,0,2.0
6,1,38,1,1,2,31,43,3,2,2,2,1,2.0,0.81,19.59,3.62,1,2.0
6,1,39,1,1,3,48,49,2,4,4,2,1,2.0,0.53,20.12,12.081,1,1.0
6,1,40,1,2,1,18,44,3,5,5,2,1,1.0,0.33,20.45,7.419,0,1.0
6,1,42,1,1,1,41,18,3,5,5,2,1,2.0,0.48,21.58,9.984,1,2.0
6,1,43,1,2,1,41,11,2,3,3,2,1,1.0,0.36,21.94,7.197,0,1.0
6,1,44,1,2,2,39,3,5,4,5,1,1,2.0,0.54,22.48,10.907,1,2.0
6,1,45,1,2,3,40,54,3,5,3,1,1,2.0,0.83,23.31,11.108,1,1.0
6,1,46,1,1,1,38,14,2,5,2,1,1,1.0,0.24,23.55,8.07,0,1.0
6,1,47,1,1,2,40,34,4,3,4,1,1,1.0,0.4,23.95,3.376,0,1.0
6,1,48,1,1,3,25,8,2,3,2,1,1,1.0,0.36,24.31,6.278,0,1.0
6,1,49,1,1,4,49,26,2,5,5,2,1,2.0,0.56,24.87,4.745,1,2.0
6,1,50,1,1,5,41,7,4,3,4,1,1,1.0,0.08,24.95,12.042,0,2.0
6,1,51,1,1,6,12,44,3,4,4,2,1,2.0,0.66,25.61,6.837,1,2.0
6,1,52,1,2,1,41,14,3,5,3,1,1,2.0,0.55,26.16,7.457,1,2.0
6,1,53,1,2,2,11,30,3,2,3,1,1,2.0,0.74,26.9,9.765,1,1.0
6,1,54,1,2,3,48,32,5,3,3,2,1,1.0,0.39,27.29,8.892,0,2.0
6,1,55,1,2,4,42,38,2,3,2,1,1,2.0,0.87,28.16,7.174,1,2.0
6,1,56,1,2,5,22,18,3,2,3,1,1,2.0,0.74,28.9,4.532,1,1.0
6,1,57,1,1,1,5,25,3,4,3,1,1,1.0,0.26,29.16,7.932,0,1.0
6,1,58,1,1,2,16,21,4,3,3,2,1,2.0,0.71,29.87,4.732,1,2.0
6,1,59,1,1,3,39,54,3,4,4,2,1,2.0,0.55,30.42,13.276,1,1.0
6,1,60,1,2,1,35,15,4,5,4,1,1,2.0,0.66,31.08,7.863,1,2.0
6,1,61,1,2,2,37,40,5,2,2,2,1,1.0,0.33,31.41,12.41,0,2.0
6,1,62,1,1,1,52,22,2,3,3,2,1,2.0,0.67,32.08,5.815,1,1.0
6,1,63,1,1,2,23,50,2,3,2,1,1,1.0,0.3,32.38,4.364,0,2.0
6,1,64,1,1,3,34,6,5,2,5,1,1,1.0,0.46,32.84,10.042,0,1.0
6,1,65,1,1,4,27,50,5,3,3,2,1,2.0,0.45,33.29,4.439,1,2.0
6,1,66,1,1,5,38,20,3,2,3,1,1,1.0,0.38,33.67,12.226,0,2.0
6,1,67,1,2,1,12,53,4,3,4,1,1,2.0,0.77,34.44,8.823,1,1.0
6,1,68,1,2,2,5,38,5,3,5,1,1,2.0,0.75,35.19,7.732,1,1.0
6,1,70,1,2,4,51,41,5,3,5,1,1,2.0,0.67,36.26,6.706,1,2.0
6,1,71,1,1,1,19,24,4,3,3,2,1,2.0,0.75,37.01,3.395,1,2.0
6,1,72,1,1,2,11,44,4,5,5,2,1,2.0,0.73,37.74,4.633,1,1.0
6,1,73,1,2,1,45,5,4,2,4,1,1,2.0,0.64,38.38,3.053,1,2.0
6,1,74,1,2,2,53,31,4,5,4,1,1,2.0,0.62,39.0,5.36,1,1.0
6,1,75,1,2,3,48,33,2,4,2,1,1,2.0,0.63,39.63,5.352,1,1.0
6,1,76,1,2,4,50,38,4,2,4,1,1,2.0,0.49,40.12,5.519,1,1.0
6,1,77,1,2,5,5,21,2,5,2,1,1,2.0,0.64,40.76,2.927,1,1.0
6,1,78,1,2,6,36,33,4,3,4,1,1,2.0,0.68,41.44,3.144,1,1.0
6,1,79,1,1,1,20,10,5,3,3,2,1,2.0,0.7,42.14,4.552,1,2.0
6,1,80,1,1,2,9,44,5,4,4,2,1,2.0,0.84,42.98,4.96,1,1.0
6,1,81,1,1,3,50,37,5,3,3,2,1,2.0,0.63,43.61,2.551,1,1.0
6,1,82,1,1,4,24,16,4,2,2,2,1,2.0,0.74,44.35,3.998,1,1.0
6,1,83,1,2,1,34,27,4,5,4,1,1,2.0,0.76,45.11,4.332,1,2.0
6,1,84,1,1,1,16,19,4,2,2,2,1,2.0,0.78,45.89,2.987,1,2.0
6,1,1,2,1,1,28,39,2,3,3,2,1,2.0,0.55,46.44,10.185,1,
6,1,2,2,1,2,43,46,3,2,2,2,1,2.0,0.69,47.13,3.471,1,1.0
6,1,3,2,1,3,37,31,3,5,5,2,1,2.0,0.7,47.83,3.665,1,1.0
6,1,4,2,1,4,26,17,4,2,2,2,1,2.0,0.55,48.38,2.732,1,1.0
6,1,5,2,2,1,18,17,4,3,4,1,1,2.0,0.58,48.96,6.908,1,2.0
6,1,6,2,1,1,53,50,5,3,3,2,1,2.0,0.79,49.75,3.43,1,2.0
6,1,7,2,1,2,36,38,4,2,2,2,1,2.0,0.65,50.4,4.314,1,1.0
6,1,8,2,1,3,26,39,4,3,3,2,1,2.0,0.71,51.11,7.034,1,1.0
6,1,9,2,1,4,3,54,5,4,4,2,1,2.0,0.68,51.79,3.054,1,1.0
6,1,10,2,1,5,6,52,3,4,4,2,1,2.0,0.59,52.38,2.834,1,1.0
6,1,11,2,1,6,34,51,3,4,4,2,1,2.0,0.6,52.98,4.19,1,1.0
6,1,12,2,2,1,14,32,4,3,4,1,1,2.0,0.72,53.7,3.203,1,2.0
6,1,13,2,2,2,52,41,4,2,4,1,1,2.0,0.56,54.26,4.305,1,1.0
6,1,14,2,2,3,31,39,3,5,3,1,1,2.0,0.76,55.02,3.906,1,1.0
6,1,15,2,2,4,8,53,3,4,3,1,1,2.0,0.73,55.75,4.211,1,1.0
6,1,16,2,2,5,8,6,5,3,5,1,1,2.0,0.57,56.32,1.929,1,1.0
6,1,17,2,1,1,50,47,5,3,3,2,1,2.0,0.64,56.96,2.842,1,2.0
6,1,18,2,1,2,38,8,5,2,2,2,1,2.0,0.53,57.49,2.437,1,1.0
6,1,19,2,1,3,34,22,4,2,2,2,1,2.0,0.41,57.9,5.425,1,1.0
6,1,20,2,1,4,49,1,4,5,5,2,1,2.0,0.78,58.68,4.15,1,1.0
6,1,21,2,1,5,11,9,5,3,3,2,1,2.0,0.61,59.29,2.733,1,1.0
6,1,22,2,2,1,20,9,2,4,2,1,1,2.0,0.71,60.0,2.925,1,2.0
6,1,23,2,2,2,18,4,2,5,2,1,1,2.0,0.69,60.69,4.278,1,1.0
6,1,24,2,2,3,11,31,4,2,4,1,1,2.0,0.67,61.36,3.785,1,1.0
6,1,25,2,2,4,2,40,3,5,3,1,1,2.0,0.55,61.91,4.895,1,1.0
6,1,26,2,2,5,52,22,3,4,3,1,1,2.0,0.56,62.47,2.857,1,1.0
6,1,27,2,2,6,23,16,5,3,5,1,1,2.0,0.62,63.09,3.076,1,1.0
6,1,28,2,1,1,51,41,3,2,3,1,1,1.0,0.19,63.28,2.647,0,1.0
6,1,29,2,1,2,18,45,5,4,4,2,1,2.0,0.54,63.82,6.266,1,2.0
6,1,30,2,2,1,33,51,5,4,5,1,1,2.0,0.84,64.66,4.749,1,2.0
6,1,31,2,2,2,5,36,2,5,2,1,1,2.0,0.67,65.33,5.02,1,1.0
6,1,32,2,2,3,39,8,4,3,3,2,1,1.0,0.19,65.52,2.609,0,2.0
6,1,33,2,2,4,12,45,2,3,2,1,1,2.0,0.66,66.18,3.51,1,2.0
6,1,34,2,1,1,44,8,5,2,2,2,1,2.0,0.53,66.71,3.8,1,2.0
6,1,35,2,1,2,25,51,2,3,3,2,1,2.0,0.51,67.22,4.589,1,1.0
6,1,36,2,1,3,45,4,3,2,2,2,1,2.0,0.64,67.86,3.955,1,1.0
6,1,37,2,2,1,4,8,4,5,4,1,1,2.0,0.78,68.64,3.41,1,2.0
6,1,38,2,2,2,11,5,4,5,4,1,1,2.0,0.68,69.32,1.831,1,1.0
6,1,39,2,1,1,37,9,2,5,5,2,1,2.0,0.74,70.06,3.451,1,2.0
6,1,40,2,2,1,31,29,4,5,4,1,1,2.0,0.53,70.59,5.086,1,2.0
6,1,41,2,2,2,17,35,5,2,5,1,1,2.0,0.61,71.2,1.488,1,1.0
6,1,42,2,2,3,46,16,5,4,5,1,1,2.0,0.64,71.84,3.97,1,1.0
6,1,43,2,1,1,44,42,3,2,2,2,1,2.0,0.52,72.36,2.241,1,2.0
6,1,44,2,1,2,38,11,2,4,4,2,1,2.0,0.51,72.87,2.421,1,1.0
6,1,45,2,2,1,6,32,3,2,3,1,1,2.0,0.78,73.65,3.714,1,2.0
6,1,46,2,2,2,19,12,2,3,2,1,1,2.0,0.67,74.32,4.906,1,1.0
6,1,47,2,2,3,21,33,5,2,5,1,1,2.0,0.59,74.91,2.244,1,1.0
6,1,48,2,2,4,45,51,2,4,2,1,1,2.0,0.76,75.67,5.448,1,1.0
6,1,49,2,2,5,28,24,4,5,4,1,1,2.0,0.69,76.36,2.667,1,1.0
6,1,50,2,2,6,26,32,2,4,2,1,1,2.0,0.55,76.91,3.086,1,1.0
6,1,51,2,1,1,20,27,3,5,5,2,1,2.0,0.82,77.73,4.464,1,2.0
6,1,52,2,1,2,52,39,4,3,3,2,1,2.0,0.7,78.43,2.73,1,1.0
6,1,53,2,1,3,5,18,3,4,4,2,1,2.0,0.84,79.27,4.747,1,1.0
6,1,54,2,2,1,14,44,2,4,2,1,1,2.0,0.8,80.07,3.706,1,2.0
6,1,55,2,2,2,21,13,2,4,2,1,1,2.0,0.59,80.66,3.603,1,1.0
6,1,56,2,2,3,1,4,5,2,5,1,1,2.0,0.51,81.17,4.625,1,1.0
6,1,57,2,1,1,6,34,2,3,3,2,1,2.0,0.66,81.83,4.725,1,2.0
6,1,58,2,1,2,52,42,2,5,5,2,1,2.0,0.63,82.46,5.462,1,1.0
6,1,59,2,1,3,44,23,4,2,2,2,1,2.0,0.57,83.03,3.449,1,1.0
6,1,60,2,1,4,35,26,3,5,5,2,1,2.0,0.73,83.76,7.308,1,1.0
6,1,61,2,1,5,32,53,5,4,4,2,1,2.0,0.84,84.6,4.246,1,1.0
6,1,62,2,2,1,5,23,3,2,3,1,1,2.0,0.6,85.2,3.193,1,2.0
6,1,63,2,2,2,7,22,2,5,2,1,1,2.0,0.57,85.77,1.624,1,1.0
6,1,64,2,2,3,11,51,4,3,4,1,1,2.0,0.64,86.41,4.58,1,1.0
6,1,65,2,2,4,53,5,2,5,5,2,1,1.0,0.41,86.82,3.051,0,2.0
6,1,66,2,2,5,41,9,3,4,3,1,1,2.0,0.57,87.39,3.55,1,2.0
6,1,67,2,1,1,18,19,4,2,2,2,1,2.0,0.53,87.92,4.189,1,2.0
6,1,68,2,1,2,10,6,4,3,3,2,1,2.0,0.65,88.57,6.547,1,1.0
6,1,69,2,1,3,20,11,3,5,5,2,1,2.0,0.66,89.23,3.258,1,1.0
6,1,70,2,1,4,2,8,5,4,4,2,1,2.0,0.72,89.95,5.109,1,1.0
6,1,71,2,1,5,36,42,4,5,5,2,1,2.0,0.6,90.55,3.031,1,1.0
6,1,72,2,1,6,3,5,3,2,2,2,1,2.0,0.65,91.2,2.395,1,1.0
6,1,73,2,2,1,33,30,5,2,5,1,1,2.0,0.62,91.82,4.521,1,2.0
6,1,74,2,2,2,53,46,2,3,2,1,1,2.0,0.66,92.48,3.97,1,1.0
6,1,75,2,2,3,35,28,2,3,2,1,1,2.0,0.85,93.33,3.488,1,1.0
6,1,76,2,2,4,34,24,5,4,5,1,1,2.0,0.6,93.93,3.698,1,1.0
6,1,77,2,1,1,3,23,5,3,5,1,1,1.0,0.17,94.1,3.979,0,1.0
6,1,78,2,2,1,25,51,2,4,2,1,1,2.0,0.72,94.82,3.706,1,1.0
6,1,79,2,2,2,1,18,3,4,3,1,1,2.0,0.56,95.38,3.827,1,1.0
6,1,80,2,1,1,4,49,2,5,5,2,1,2.0,0.67,96.05,4.039,1,2.0
6,1,81,2,1,2,4,21,5,3,3,2,1,2.0,0.59,96.64,3.732,1,1.0
6,1,82,2,1,3,43,40,3,5,5,2,1,2.0,0.73,97.37,4.22,1,1.0
6,1,83,2,1,4,39,5,5,2,2,2,1,2.0,0.73,98.1,4.032,1,1.0
6,1,84,2,2,1,52,23,4,5,5,2,1,1.0,0.31,98.41,2.428,0,1.0
6,1,1,3,1,1,14,13,4,3,3,2,1,2.0,0.42,98.83,3.576,1,
6,1,2,3,1,2,16,31,3,5,5,2,1,2.0,0.68,99.51,1.847,1,1.0
6,1,3,3,2,1,41,54,3,2,2,2,1,1.0,0.52,100.03,2.506,0,1.0
6,1,4,3,2,2,48,18,2,5,2,1,1,2.0,0.79,100.82,10.163,1,2.0
6,1,5,3,1,1,17,12,3,5,5,2,1,2.0,0.48,101.3,3.242,1,2.0
6,1,6,3,2,1,24,8,5,3,5,1,1,2.0,0.66,101.96,2.135,1,2.0
6,1,7,3,2,2,18,15,3,5,3,1,1,2.0,0.59,102.55,2.414,1,1.0
6,1,9,3,1,1,6,26,4,5,4,1,1,1.0,0.21,102.76,3.162,0,
6,1,10,3,1,2,18,42,5,4,4,2,1,2.0,0.52,103.28,6.089,1,2.0
6,1,11,3,1,3,45,53,4,3,3,2,1,2.0,0.7,103.98,6.659,1,1.0
6,1,12,3,1,4,14,51,4,2,4,1,1,1.0,0.28,104.26,3.958,0,2.0
6,1,13,3,1,5,9,27,4,2,4,1,1,1.0,0.34,104.6,2.437,0,1.0
6,1,14,3,2,1,51,52,3,2,3,1,1,2.0,0.62,105.22,5.793,1,1.0
6,1,15,3,1,1,45,52,4,2,2,2,1,2.0,0.61,105.83,2.775,1,2.0
6,1,16,3,1,2,4,24,3,5,5,2,1,2.0,0.71,106.54,3.894,1,1.0
6,1,17,3,1,3,21,4,4,5,5,2,1,2.0,0.75,107.29,3.976,1,1.0
6,1,18,3,1,4,28,38,2,3,3,2,1,2.0,0.92,108.21,4.15,1,1.0
6,1,19,3,1,5,11,25,2,5,5,2,1,2.0,0.51,108.72,4.414,1,1.0
6,1,20,3,1,6,33,19,5,3,3,2,1,2.0,0.55,109.27,4.331,1,1.0
6,1,21,3,2,1,19,29,3,5,3,1,1,2.0,0.79,110.06,5.146,1,2.0
6,1,22,3,2,2,1,10,4,3,4,1,1,2.0,0.62,110.68,3.978,1,1.0
6,1,23,3,2,3,26,12,4,3,4,1,1,2.0,0.5,111.18,2.585,1,1.0
6,1,24,3,2,4,52,6,3,4,3,1,1,2.0,0.7,111.88,2.238,1,1.0
6,1,25,3,2,5,11,21,2,5,2,1,1,2.0,0.85,112.73,2.275,1,1.0
6,1,26,3,1,1,43,11,2,4,4,2,1,2.0,0.75,113.48,4.917,1,2.0
6,1,27,3,1,2,2,7,4,5,5,2,1,2.0,0.9,114.38,4.958,1,1.0
6,1,28,3,1,3,15,30,4,5,5,2,1,2.0,0.73,115.11,4.838,1,1.0
6,1,29,3,1,4,9,34,5,2,2,2,1,2.0,0.89,116.0,5.889,1,1.0
6,1,30,3,2,1,18,2,3,5,3,1,1,2.0,0.63,116.63,3.267,1,2.0
6,1,31,3,2,2,11,50,5,4,5,1,1,2.0,0.53,117.16,2.51,1,1.0
6,1,32,3,2,3,48,31,5,2,5,1,1,2.0,0.64,117.8,5.047,1,1.0
6,1,33,3,2,4,52,16,5,3,5,1,1,2.0,0.81,118.61,2.858,1,1.0
6,1,34,3,2,5,24,46,5,2,5,1,1,2.0,0.54,119.15,5.334,1,1.0
6,1,35,3,2,6,42,26,2,4,2,1,1,2.0,0.74,119.89,5.07,1,1.0
6,1,36,3,1,1,3,2,4,5,5,2,1,2.0,0.6,120.49,5.664,1,2.0
6,1,37,3,1,2,24,18,4,2,2,2,1,2.0,0.73,121.22,1.707,1,1.0
6,1,38,3,1,3,25,35,3,5,5,2,1,2.0,0.54,121.76,2.836,1,1.0
6,1,39,3,2,1,37,12,2,4,2,1,1,2.0,0.68,122.44,6.528,1,2.0
6,1,40,3,2,2,23,34,2,3,2,1,1,2.0,0.43,122.87,3.017,1,1.0
6,1,41,3,2,3,40,47,5,2,5,1,1,2.0,0.61,123.48,3.693,1,1.0
6,1,42,3,2,4,40,44,5,4,5,1,1,2.0,0.72,124.2,4.296,1,1.0
6,1,43,3,1,1,22,11,5,3,3,2,1,2.0,0.63,124.83,3.53,1,2.0
6,1,44,3,1,2,41,17,2,5,5,2,1,2.0,0.81,125.64,3.69,1,1.0
6,1,45,3,1,3,31,17,2,3,3,2,1,2.0,0.59,126.23,1.668,1,1.0
6,1,46,3,1,4,41,36,3,4,4,2,1,2.0,0.39,126.62,5.982,1,1.0
6,1,47,3,1,5,6,32,4,2,2,2,1,2.0,0.52,127.14,3.58,1,1.0
6,1,48,3,1,6,7,48,4,3,3,2,1,2.0,0.79,127.93,4.666,1,1.0
6,1,49,3,2,1,6,3,5,4,5,1,1,2.0,0.65,128.58,3.981,1,2.0
6,1,50,3,2,2,39,2,5,4,5,1,1,2.0,0.71,129.29,1.675,1,1.0
6,1,51,3,2,3,3,9,2,4,2,1,1,2.0,0.78,130.07,2.261,1,1.0
6,1,52,3,2,4,20,7,3,2,3,1,1,2.0,0.42,130.49,2.937,1,1.0
6,1,53,3,2,5,25,47,3,4,3,1,1,2.0,0.59,131.08,5.761,1,1.0
6,1,54,3,2,6,17,44,2,5,5,2,1,1.0,0.25,131.33,3.192,0,2.0
6,1,55,3,1,1,11,6,2,5,5,2,1,2.0,0.55,131.88,6.07,1,1.0
6,1,56,3,1,2,20,53,5,3,3,2,1,2.0,0.65,132.53,5.329,1,1.0
6,1,57,3,1,3,9,44,5,2,2,2,1,2.0,0.85,133.38,4.169,1,1.0
6,1,58,3,2,1,24,12,2,3,3,2,1,1.0,0.33,133.71,3.44,0,1.0
6,1,59,3,2,2,26,24,5,2,5,1,1,2.0,0.81,134.52,1.86,1,2.0
6,1,60,3,2,3,46,27,5,3,5,1,1,2.0,0.58,135.1,4.232,1,1.0
6,1,61,3,2,4,20,6,3,2,3,1,1,2.0,0.67,135.77,4.556,1,1.0
6,1,62,3,2,5,47,25,5,4,5,1,1,2.0,0.57,136.34,2.515,1,1.0
6,1,63,3,1,1,25,28,5,3,5,1,1,1.0,0.4,136.74,1.308,0,1.0
6,1,64,3,1,2,2,35,2,4,4,2,1,2.0,0.64,137.38,4.757,1,2.0
6,1,65,3,1,3,37,25,2,4,4,2,1,2.0,0.72,138.1,3.652,1,1.0
6,1,66,3,1,4,40,1,4,5,5,2,1,2.0,0.75,138.85,3.904,1,1.0
6,1,67,3,1,5,32,37,5,4,4,2,1,2.0,0.66,139.51,6.929,1,1.0
6,1,68,3,2,1,2,33,4,2,2,2,1,1.0,0.44,139.95,8.234,0,1.0
6,1,69,3,2,2,7,19,3,2,3,1,1,2.0,0.94,140.89,3.262,1,2.0
6,1,70,3,2,3,44,43,2,4,2,1,1,2.0,0.73,141.62,2.553,1,1.0
6,1,71,3,1,1,52,49,3,4,3,1,1,1.0,0.33,141.95,4.576,0,1.0
6,1,72,3,2,1,51,25,2,3,2,1,1,2.0,0.77,142.72,8.343,1,1.0
6,1,73,3,2,2,11,13,2,3,2,1,1,2.0,0.67,143.39,2.647,1,1.0
6,1,74,3,1,1,2,50,2,3,3,2,1,2.0,0.54,143.93,8.25,1,2.0
6,1,75,3,1,2,3,45,5,2,2,2,1,2.0,0.72,144.65,1.997,1,1.0
6,1,76,3,1,3,45,27,3,4,3,1,1,1.0,0.33,144.98,4.315,0,2.0
6,1,77,3,1,4,19,18,4,3,3,2,1,2.0,0.63,145.61,3.659,1,2.0
6,1,78,3,2,1,26,17,4,3,3,2,1,1.0,0.48,146.09,1.623,0,1.0
6,1,79,3,2,2,2,44,4,2,4,1,1,2.0,0.89,146.98,3.924,1,2.0
6,1,80,3,2,3,5,27,3,4,3,1,1,2.0,0.61,147.59,4.132,1,1.0
6,1,81,3,2,4,28,10,2,5,2,1,1,2.0,0.68,148.27,3.004,1,1.0
6,1,82,3,1,1,31,17,4,5,5,2,1,2.0,0.57,148.84,4.29,1,2.0
6,1,83,3,1,2,45,11,3,2,2,2,1,2.0,0.75,149.59,5.763,1,1.0
6,1,84,3,2,1,16,53,3,4,3,1,1,2.0,0.39,149.98,10.378,1,2.0
7,2,1,1,2,1,17,34,4,5,5,2,1,2.0,0.78,0.78,10.602,0,
7,2,2,1,2,2,26,43,2,4,2,1,1,1.0,0.36,1.14,3.326,1,2.0
7,2,3,1,2,3,12,38,5,3,3,2,1,2.0,0.7,1.84,3.782,0,2.0
7,2,4,1,2,4,21,33,5,3,3,2,1,2.0,0.81,2.65,10.988,0,1.0
7,2,6,1,2,6,5,13,2,5,2,1,1,1.0,0.32,3.6,5.699,1,2.0
7,2,7,1,1,1,29,36,4,3,4,1,1,2.0,0.52,4.12,3.916,0,1.0
7,2,8,1,1,2,51,23,5,3,3,2,1,1.0,0.14,4.26,9.933,1,2.0
7,2,9,1,1,3,11,12,2,3,3,2,1,1.0,0.25,4.51,2.477,1,1.0
7,2,10,1,1,4,18,45,3,2,3,1,1,2.0,0.7,5.21,5.768,0,2.0
7,2,11,1,1,5,9,10,4,3,3,2,1,1.0,0.27,5.48,1.614,1,2.0
7,2,12,1,1,6,44,49,2,4,2,1,1,2.0,0.51,5.99,4.411,0,2.0
7,2,13,1,2,1,24,46,4,2,2,2,1,2.0,0.79,6.78,3.608,0,2.0
7,2,14,1,2,2,1,41,5,2,2,2,1,2.0,0.58,7.36,3.942,0,1.0
7,2,15,1,2,3,39,26,2,3,3,2,1,2.0,0.67,8.03,2.213,0,1.0
7,2,16,1,1,1,21,49,3,4,3,1,1,2.0,0.67,8.7,4.074,0,2.0
7,2,17,1,1,2,31,27,2,5,2,1,1,2.0,0.64,9.34,4.661,0,1.0
7,2,18,1,2,1,24,27,3,5,3,1,1,1.0,0.38,9.72,2.936,1,1.0
7,2,19,1,2,2,37,39,3,2,3,1,1,1.0,0.3,10.02,2.928,1,1.0
7,2,20,1,2,3,18,21,3,5,5,2,1,2.0,0.47,10.49,5.433,0,2.0
7,2,21,1,2,4,27,53,3,2,2,2,1,2.0,0.55,11.04,3.933,0,1.0
7,2,22,1,2,5,4,22,2,4,4,2,1,2.0,0.7,11.74,4.477,0,1.0
7,2,23,1,1,1,25,2,2,5,2,1,1,2.0,0.52,12.26,1.335,0,2.0
7,2,24,1,1,2,38,11,5,3,5,1,1,2.0,0.63,12.89,5.232,0,1.0
7,2,25,1,1,3,41,37,4,3,4,1,1,2.0,0.56,13.45,4.748,0,1.0
7,2,26,1,1,4,34,23,5,4,4,2,1,1.0,0.19,13.64,4.602,1,2.0
7,2,27,1,1,5,53,11,4,2,4,1,1,2.0,0.55,14.19,5.28,0,2.0
7,2,28,1,2,1,18,19,3,4,4,2,1,2.0,0.62,14.81,2.938,0,2.0
7,2,29,1,1,1,30,38,4,5,4,1,1,2.0,0.69,15.5,1.89,0,2.0
7,2,30,1,1,2,13,2,4,2,4,1,1,2.0,0.65,16.15,1.348,0,1.0
7,2,31,1,1,3,31,16,2,4,2,1,1,2.0,0.79,16.94,3.467,0,1.0
7,2,32,1,2,1,36,39,4,3,3,2,1,2.0,0.64,17.58,4.766,0,2.0
7,2,33,1,2,2,3,25,3,4,4,2,1,2.0,0.49,18.07,1.037,0,1.0
7,2,34,1,1,1,38,5,4,3,3,2,1,1.0,0.33,18.4,4.017,1,1.0
7,2,35,1,1,2,12,54,4,2,2,2,1,1.0,0.34,18.74,3.309,1,1.0
7,2,36,1,1,3,22,10,4,3,4,1,1,2.0,0.7,19.44,5.048,0,2.0
7,2,37,1,1,4,49,51,5,2,5,1,1,2.0,0.73,20.17,2.73,0,1.0
7,2,38,1,2,1,37,47,5,2,2,2,1,2.0,0.82,20.99,3.946,0,2.0
7,2,39,1,2,2,26,10,3,5,3,1,1,1.0,0.27,21.26,10.49,1,2.0
7,2,40,1,2,3,2,35,5,4,5,1,1,1.0,0.36,21.62,2.836,1,1.0
7,2,41,1,2,4,27,11,2,4,2,1,1,1.0,0.33,21.95,1.184,1,1.0
7,2,42,1,1,1,26,52,5,3,5,1,1,2.0,0.6,22.55,1.422,0,1.0
7,2,43,1,2,1,5,25,2,3,2,1,1,1.0,0.58,23.13,2.179,1,1.0
7,2,44,1,2,2,33,5,5,2,2,2,1,2.0,0.64,23.77,1.066,0,2.0
7,2,45,1,2,3,30,41,3,5,3,1,1,1.0,0.17,23.94,5.036,1,2.0
7,2,46,1,2,4,38,22,3,5,5,2,1,2.0,0.88,24.82,3.824,0,2.0
7,2,47,1,1,1,49,48,4,2,2,2,1,1.0,0.37,25.19,1.893,1,1.0
7,2,48,1,2,1,16,38,3,2,3,1,1,1.0,0.2,25.39,3.271,1,2.0
7,2,49,1,2,2,11,29,4,5,5,2,1,2.0,0.74,26.13,3.713,0,2.0
7,2,50,1,2,3,8,48,3,2,2,2,1,2.0,0.82,26.95,6.362,0,1.0
7,2,51,1,2,4,19,45,2,4,4,2,1,2.0,0.56,27.51,2.985,0,1.0
7,2,52,1,2,5,42,47,4,3,3,2,1,2.0,0.68,28.19,5.391,0,1.0
7,2,54,1,1,1,16,24,5,4,5,1,1,2.0,0.53,29.04,4.856,0,1.0
7,2,55,1,1,2,48,6,5,3,5,1,1,2.0,0.81,29.85,1.587,0,1.0
7,2,56,1,1,3,31,53,2,3,3,2,1,1.0,0.33,30.18,7.361,1,2.0
7,2,57,1,1,4,13,20,3,5,3,1,1,2.0,0.73,30.91,5.192,0,2.0
7,2,58,1,2,1,12,37,2,3,2,1,1,1.0,0.25,31.16,1.735,1,1.0
7,2,59,1,2,2,48,23,5,2,5,1,1,1.0,0.26,31.42,2.462,1,1.0
7,2,60,1,1,1,10,25,3,4,3,1,1,2.0,0.7,32.12,2.313,0,1.0
7,2,61,1,1,2,41,45,2,3,3,2,1,1.0,0.35,32.47,10.298,1,2.0
7,2,62,1,2,1,3,12,4,5,5,2,1,2.0,0.88,33.35,2.044,0,1.0
7,2,63,1,1,1,47,41,4,5,5,2,1,1.0,0.3,33.65,3.032,1,1.0
7,2,64,1,1,2,53,51,5,2,2,2,1,1.0,0.59,34.24,7.212,1,1.0
7,2,65,1,1,3,25,40,3,2,3,1,1,2.0,0.84,35.08,2.089,0,2.0
7,2,66,1,2,1,52,49,2,5,2,1,1,1.0,0.1,35.18,5.299,1,1.0
7,2,67,1,2,2,42,17,5,3,3,2,1,2.0,0.47,35.65,3.66,0,2.0
7,2,68,1,2,3,46,44,3,5,5,2,1,2.0,0.6,36.25,3.048,0,1.0
7,2,69,1,1,1,47,45,5,4,5,1,1,2.0,0.65,36.9,1.595,0,2.0
7,2,70,1,1,2,31,48,3,4,4,2,1,1.0,0.33,37.23,6.569,1,2.0
7,2,71,1,1,3,2,49,3,4,3,1,1,2.0,0.77,38.0,4.512,0,2.0
7,2,72,1,1,4,13,9,4,5,4,1,1,2.0,0.58,38.58,5.961,0,1.0
7,2,73,1,1,5,31,16,2,5,2,1,1,2.0,0.58,39.16,5.592,0,1.0
7,2,74,1,2,1,5,6,2,5,2,1,1,1.0,0.31,39.47,2.854,1,1.0
7,2,75,1,2,2,43,35,4,2,2,2,1,2.0,0.66,40.13,4.69,0,2.0
7,2,76,1,2,3,48,6,5,4,5,1,1,1.0,0.37,40.5,4.836,1,2.0
7,2,77,1,2,4,52,44,4,2,4,1,1,1.0,0.46,40.96,1.967,1,1.0
7,2,78,1,2,5,9,17,2,5,2,1,1,1.0,0.41,41.37,1.55,1,1.0
7,2,79,1,1,1,17,18,2,3,2,1,1,2.0,0.46,41.83,1.502,0,1.0
7,2,80,1,1,2,17,41,2,4,2,1,1,2.0,0.75,42.58,4.607,0,1.0
7,2,81,1,1,3,13,31,5,4,4,2,1,1.0,0.43,43.01,7.812,1,2.0
7,2,82,1,1,4,29,32,3,2,2,2,1,1.0,0.41,43.42,2.938,1,1.0
7,2,83,1,1,5,21,11,3,4,3,1,1,2.0,0.82,44.24,9.361,0,2.0
7,2,84,1,1,6,30,51,5,2,5,1,1,2.0,0.71,44.95,1.913,0,1.0
7,2,1,2,1,1,19,18,3,4,3,1,1,2.0,0.59,45.54,3.555,0,
7,2,2,2,2,1,35,26,5,2,2,2,1,2.0,0.65,46.19,1.491,0,2.0
7,2,3,2,2,2,2,39,5,2,2,2,1,2.0,0.38,46.57,4.581,0,1.0
7,2,4,2,2,3,34,38,4,5,5,2,1,2.0,0.72,47.29,5.323,0,1.0
7,2,5,2,2,4,17,28,3,4,4,2,1,2.0,0.68,47.97,4.004,0,1.0
7,2,6,2,2,5,29,8,3,4,3,1,1,1.0,0.26,48.23,6.017,1,2.0
7,2,7,2,1,1,33,44,2,5,5,2,1,1.0,0.26,48.49,1.661,1,2.0
7,2,8,2,1,2,32,34,2,4,4,2,1,1.0,0.21,48.7,3.241,1,1.0
7,2,9,2,1,3,18,53,2,4,2,1,1,2.0,0.66,49.36,5.013,0,2.0
7,2,10,2,1,4,32,1,4,3,3,2,1,1.0,0.38,49.74,9.401,1,2.0
7,2,11,2,1,5,12,39,3,5,3,1,1,2.0,0.63,50.37,4.847,0,2.0
7,2,12,2,1,6,18,16,3,4,3,1,1,2.0,0.61,50.98,6.25,0,1.0
7,2,13,2,2,1,32,25,4,3,4,1,1,1.0,0.33,51.31,4.077,1,1.0
7,2,14,2,2,2,20,30,4,5,5,2,1,2.0,0.65,51.96,5.848,0,2.0
7,2,15,2,2,3,26,52,4,5,4,1,1,1.0,0.22,52.18,8.54,1,2.0
7,2,16,2,2,4,28,26,4,2,2,2,1,2.0,0.82,53.0,1.427,0,2.0
7,2,17,2,1,1,30,47,4,2,4,1,1,2.0,0.72,53.72,2.12,0,2.0
7,2,18,2,1,2,44,38,4,2,4,1,1,2.0,0.82,54.54,6.433,0,1.0
7,2,19,2,1,3,8,43,5,3,3,2,1,1.0,0.27,54.81,8.301,1,2.0
7,2,20,2,1,4,24,3,3,2,3,1,1,2.0,0.54,55.35,5.518,0,2.0
7,2,21,2,1,5,38,54,3,2,2,2,1,1.0,0.43,55.78,2.447,1,2.0
7,2,22,2,2,1,50,54,2,5,5,2,1,2.0,0.67,56.45,10.362,0,1.0
7,2,23,2,2,2,7,22,5,4,4,2,1,2.0,0.58,57.03,3.225,0,1.0
7,2,25,2,2,4,44,5,5,3,5,1,1,1.0,0.1,57.79,5.479,1,2.0
7,2,26,2,2,5,20,4,2,3,3,2,1,2.0,0.79,58.58,6.217,0,2.0
7,2,27,2,2,6,33,13,2,5,2,1,1,1.0,0.22,58.8,4.814,1,2.0
7,2,28,2,1,1,12,31,5,3,5,1,1,2.0,0.59,59.39,1.435,0,1.0
7,2,29,2,1,2,53,16,2,3,2,1,1,2.0,0.82,60.21,3.695,0,1.0
7,2,30,2,1,3,49,26,3,5,3,1,1,2.0,0.56,60.77,1.896,0,1.0
7,2,31,2,1,4,49,43,2,4,2,1,1,2.0,0.62,61.39,2.154,0,1.0
7,2,32,2,2,1,54,36,4,5,4,1,1,1.0,0.27,61.66,2.402,1,1.0
7,2,33,2,1,1,35,53,2,4,2,1,1,2.0,0.86,62.52,1.758,0,1.0
7,2,34,2,1,2,44,17,5,3,5,1,1,2.0,0.68,63.2,4.582,0,1.0
7,2,35,2,2,1,15,26,2,5,2,1,1,1.0,0.21,63.41,1.996,1,1.0
7,2,36,2,2,2,10,22,2,3,3,2,1,2.0,0.53,63.94,1.594,0,2.0
7,2,37,2,1,1,8,33,5,2,2,2,1,1.0,0.54,64.48,1.448,1,1.0
7,2,38,2,1,2,1,6,3,5,3,1,1,2.0,0.9,65.38,1.803,0,2.0
7,2,39,2,1,3,17,50,2,5,2,1,1,2.0,0.86,66.24,3.537,0,1.0
7,2,40,2,2,1,49,17,2,3,2,1,1,1.0,0.19,66.43,3.184,1,1.0
7,2,41,2,2,2,19,21,3,2,2,2,1,2.0,0.64,67.07,1.103,0,2.0
7,2,42,2,2,3,24,52,4,2,2,2,1,2.0,0.64,67.71,1.6,0,1.0
7,2,43,2,1,1,33,34,5,4,5,1,1,2.0,0.7,68.41,3.405,0,2.0
7,2,44,2,1,2,54,6,3,5,5,2,1,1.0,0.27,68.68,8.05,1,2.0
7,2,45,2,1,3,11,7,2,5,2,1,1,2.0,0.55,69.23,1.342,0,2.0
7,2,46,2,1,4,37,26,2,3,2,1,1,2.0,0.61,69.84,3.445,0,1.0
7,2,48,2,1,6,7,30,3,5,5,2,1,1.0,0.46,70.3,2.968,1,
7,2,49,2,2,1,35,22,5,3,3,2,1,2.0,0.95,71.25,3.631,0,1.0
7,2,50,2,1,1,16,15,5,2,2,2,1,1.0,0.36,71.61,2.539,1,1.0
7,2,51,2,1,2,53,45,3,2,2,2,1,1.0,0.3,71.91,2.851,1,1.0
7,2,52,2,1,3,50,28,5,2,5,1,1,2.0,0.75,72.66,3.295,0,2.0
7,2,53,2,1,4,2,45,4,5,4,1,1,2.0,0.61,73.27,2.776,0,1.0
7,2,54,2,1,5,17,1,2,5,2,1,1,2.0,0.89,74.16,2.951,0,1.0
7,2,55,2,2,1,11,49,2,3,2,1,1,1.0,0.46,74.62,2.59,1,1.0
7,2,56,2,2,2,15,17,3,4,4,2,1,2.0,0.52,75.14,6.757,0,2.0
7,2,57,2,2,3,44,12,5,4,5,1,1,1.0,0.25,75.39,4.868,1,2.0
7,2,58,2,2,4,52,46,3,4,4,2,1,2.0,0.82,76.21,7.919,0,2.0
7,2,59,2,2,5,4,38,5,2,2,2,1,2.0,0.71,76.92,7.903,0,1.0
7,2,60,2,2,6,28,21,3,2,2,2,1,2.0,0.71,77.63,3.008,0,1.0
7,2,61,2,1,1,7,29,5,4,5,1,1,2.0,0.47,78.1,6.693,0,2.0
7,2,62,2,1,2,47,19,3,2,3,1,1,2.0,0.69,78.79,2.456,0,1.0
7,2,63,2,1,3,27,6,3,2,3,1,1,2.0,0.75,79.54,3.699,0,1.0
7,2,64,2,2,1,19,26,3,5,3,1,1,1.0,0.26,79.8,7.5,1,1.0
7,2,65,2,2,2,40,26,4,5,5,2,1,2.0,0.55,80.35,2.862,0,2.0
7,2,66,2,2,3,53,49,4,3,3,2,1,2.0,0.65,81.0,2.073,0,1.0
7,2,67,2,2,4,2,29,4,3,3,2,1,2.0,0.54,81.54,7.876,0,1.0
7,2,68,2,2,5,31,18,5,3,5,1,1,1.0,0.32,81.86,6.006,1,2.0
7,2,69,2,1,1,17,12,5,4,5,1,1,2.0,0.7,82.56,2.66,0,1.0
7,2,70,2,2,1,10,22,4,3,4,1,1,1.0,0.49,83.05,3.255,1,1.0
7,2,71,2,2,2,43,7,4,5,4,1,1,1.0,0.35,83.4,3.346,1,1.0
7,2,72,2,2,3,46,43,4,3,3,2,1,2.0,0.6,84.0,7.577,0,2.0
7,2,73,2,2,4,13,10,5,2,2,2,1,2.0,0.86,84.86,1.064,0,1.0
7,2,74,2,1,1,16,48,5,3,5,1,1,2.0,0.76,85.62,4.187,0,2.0
7,2,75,2,1,2,17,42,3,5,3,1,1,2.0,0.69,86.31,3.905,0,1.0
7,2,76,2,2,1,15,25,4,2,2,2,1,2.0,0.75,87.06,0.802,0,2.0
7,2,77,2,2,2,2,25,2,4,2,1,1,1.0,0.27,87.33,0.927,1,2.0
7,2,79,2,1,1,34,24,2,3,2,1,1,2.0,0.7,88.8,3.64,0,2.0
7,2,80,2,1,2,48,19,4,3,4,1,1,2.0,0.74,89.54,1.924,0,1.0
7,2,81,2,1,3,33,6,5,4,5,1,1,2.0,0.54,90.08,2.245,0,1.0
7,2,82,2,1,4,25,40,4,2,4,1,1,2.0,0.85,90.93,4.793,0,1.0
7,2,83,2,2,1,35,30,3,4,3,1,1,1.0,0.38,91.31,4.967,1,1.0
